timestamp,pos_x,pos_y,pos_z,yaw_rad,pitch_rad,roll_rad,vel_x,vel_y,vel_z,a_vel_yaw_rad,a_vel_pitch_rad,a_vel_roll_rad,acc_x,acc_y,acc_z,a_acc_yaw_rad,a_acc_pitch_rad,a_acc_roll_rad,head_light,fog_light,turn_signal,brake_light,back_light,other_light,custom_light_a,custom_light_b,custom_light_c,custom_light_d,custom_light_e,custom_light_f,custom_light_g,custom_light_h,front_wiper,rear_wiper
0.0000000000,274.5215446167,-304.5056531677,5.4479935454,-2.5559936625,0.0129456863,-0.0199976077,-8.3331134130,-5.5265235641,-0.1294532407,-0.0028119280,-0.0102195798,-0.0000331355,-0.0166370195,0.0227047577,0.1021992399,0.0286067200,0.9335157508,-0.0089760855,1,0,0,0,0,0,0,0,0,0,0,0,0,0,1,1
0.0125000000,274.4173869995,-304.5747252626,5.4464290520,-2.5560288116,0.0128179416,-0.0199980219,-8.3333213757,-5.5262397546,-0.1281757502,-0.0024543440,0.0014493671,-0.0001453366,-0.0134078679,0.0205558827,-0.0145077519,0.0294784000,0.3366689042,0.0093746819,1,0,0,0,0,0,0,0,0,0,0,0,0,0,1,1
0.0250000000,274.3132269204,-304.6437943894,5.4447811985,-2.5560594909,0.0128360587,-0.0199998386,-8.3334889741,-5.5259828061,-0.1283570971,-0.0020858640,0.0056577284,-0.0000281531,-0.0109192190,0.0177851553,-0.0565807999,0.0301504000,0.0006008798,0.0004305091,1,0,0,0,0,0,0,0,0,0,0,0,0,0,1,1
0.0375000000,274.2090650889,-304.7128607682,5.4431030823,-2.5560855642,0.0129067803,-0.0200001905,-8.3336254644,-5.5257604917,-0.1290643571,-0.0017089840,0.0056652394,-0.0000227717,-0.0088322496,0.0146473376,-0.0566477201,0.0306374400,0.0006116499,0.0015141328,1,0,0,0,0,0,0,0,0,0,0,0,0,0,1,1
0.0500000000,274.1049019717,-304.7819247961,5.4414250226,-2.5561069265,0.0129775958,-0.0200004752,-8.3337358674,-5.5255773999,-0.1297724536,-0.0013260160,0.0056728851,-0.0000038451,-0.0067116476,0.0114586376,-0.0567241279,0.0310188800,0.0006176137,0.0005181775,1,0,0,0,0,0,0,0,0,0,0,0,0,0,1,1
0.0625000000,274.0007379007,-304.8509869708,5.4397471255,-2.5561235017,0.0130485068,-0.0200005232,-8.3338197631,-5.5254341670,-0.1304815052,-0.0009382800,0.0056806052,0.0000026322,-0.0045649100,0.0082301800,-0.0568012641,0.0310944000,0.0006207511,-0.0000143690,1,0,0,0,0,0,0,0,0,0,0,0,0,0,1,1
0.0750000000,273.8965732120,-304.9200477964,5.4380692690,-2.5561352302,0.0131195144,-0.0200004903,-8.3338768244,-5.5253312897,-0.1311915210,-0.0005496000,0.0056883646,0.0000024526,-0.0024130279,0.0049937867,-0.0568787999,0.0314950400,0.0006271536,-0.0002441692,1,0,0,0,0,0,0,0,0,0,0,0,0,0,1,1
0.0875000000,273.7924082424,-304.9891077781,5.4363914831,-2.5561421002,0.0131906190,-0.0200004597,-8.3339069873,-5.5252688674,-0.1319025060,-0.0001559120,0.0056962040,-0.0000005996,-0.0002335660,0.0017156760,-0.0569571361,0.0311136000,0.0006201372,0.0004440955,1,0,0,0,0,0,0,0,0,0,0,0,0,0,1,1
0.1000000000,273.6882433331,-305.0581674275,5.4347137811,-2.5561440491,0.0132618215,-0.0200004672,-8.3339099068,-5.5252474214,-0.1326144702,0.0002330080,0.0057039557,0.0000049516,0.0019195982,-0.0015227799,-0.0570345919,0.0310156800,-1.5164414359,0.0060156928,1,0,0,0,0,0,0,0,0,0,0,0,0,0,1,1
0.1125000000,273.5840788211,-305.1272272503,5.4330360749,-2.5561411365,0.0133331210,-0.0200004053,-8.3338859119,-5.5252664562,-0.1333274026,0.0006207040,-0.0132515622,0.0000801478,0.0019658734,-0.0061433244,0.1325319999,0.0302400000,-0.5492651495,-0.0058185579,1,0,0,0,0,0,0,0,0,0,0,0,0,0,1,1
0.1250000000,273.4799150425,-305.1962877502,5.4311715021,-2.5561333777,0.0131674764,-0.0199994034,-8.3338613384,-5.5253432477,-0.1316707526,0.0009987040,-0.0201173766,0.0000074158,0.0033314938,-0.0097728041,0.2011648241,0.0304492800,0.0006050676,0.0003527736,1,0,0,0,0,0,0,0,0,0,0,0,0,0,1,1
0.1375000000,273.3757516687,-305.2653498538,5.4292389370,-2.5561208939,0.0129160092,-0.0199993107,-8.3338196948,-5.5254654078,-0.1291561923,0.0013793200,-0.0201098132,0.0000118255,0.0054778511,-0.0129162672,0.2010811999,0.0292864000,0.0008683983,-0.0000324949,1,0,0,0,0,0,0,0,0,0,0,0,0,0,1,1
0.1500000000,273.2715888023,-305.3344142063,5.4273063239,-2.5561036524,0.0126646366,-0.0199991629,-8.3337512216,-5.5256268611,-0.1266426773,0.0017454000,-0.0200989582,0.0000114193,0.0075442766,-0.0159383729,0.2009732881,0.0287308800,0.0005505965,0.0003573706,1,0,0,0,0,0,0,0,0,0,0,0,0,0,1,1
0.1625000000,273.1674267729,-305.4034812756,5.4253737592,-2.5560818349,0.0124133996,-0.0199990202,-8.3336569182,-5.5258260908,-0.1241305112,0.0021045360,-0.0200920758,0.0000158864,0.0095719823,-0.0189026971,0.2009051120,0.0278668800,0.0007104186,0.0005734685,1,0,0,0,0,0,0,0,0,0,0,0,0,0,1,1
0.1750000000,273.0632659043,-305.4725515202,5.4234411165,-2.5560555282,0.0121622486,-0.0199988216,-8.3335372684,-5.5260623745,-0.1216191973,0.0024528720,-0.0200831956,0.0000230548,0.0115404405,-0.0217768156,0.2008169280,0.0274598400,0.0006772520,0.0005375995,1,0,0,0,0,0,0,0,0,0,0,0,0,0,1,1
0.1875000000,272.9591065105,-305.5416253847,5.4215084515,-2.5560248673,0.0119112087,-0.0199985334,-8.3333930129,-5.5263345847,-0.1191089857,0.0027961200,-0.0200747299,0.0000297748,0.0134810493,-0.0246085752,0.2007328720,0.0260652800,0.0004984819,0.0003243494,1,0,0,0,0,0,0,0,0,0,0,0,0,0,1,1
0.2000000000,272.8549489015,-305.6107033073,5.4195757444,-2.5559899158,0.0116602746,-0.0199981612,-8.3332244998,-5.5266421919,-0.1165998248,0.0031219360,-0.0200684989,0.0000338292,0.0153252380,-0.0272948893,0.2006711600,0.0255033600,2.6382312040,-0.0005646637,1,0,0,0,0,0,0,0,0,0,0,0,0,0,1,1
0.2125000000,272.7507933722,-305.6797857030,5.4176429282,-2.5559508916,0.0114094183,-0.0199977384,-8.3330329343,-5.5269833780,-0.1140914353,0.0034407280,0.0129093912,0.0000267709,0.0202539897,-0.0278511135,-0.1291322800,0.0237612800,0.9572911917,0.0020171079,1,0,0,0,0,0,0,0,0,0,0,0,0,0,1,1
0.2250000000,272.6466402114,-305.7488729782,5.4162598174,-2.5559078825,0.0115707857,-0.0199974037,-8.3327797594,-5.5273315169,-0.1157055888,0.0037377440,0.0248755311,0.0000519847,0.0230914049,-0.0295326607,-0.2487624319,0.0228812800,0.0001424830,0.0010520199,1,0,0,0,0,0,0,0,0,0,0,0,0,0,1,1
0.2375000000,272.5424906649,-305.8179648632,5.4150762373,-2.5558611607,0.0118817299,-0.0199967539,-8.3324911169,-5.5277006752,-0.1188151192,0.0040237600,0.0248773121,0.0000651350,0.0247382275,-0.0318718670,-0.2487564401,0.0220659200,-0.0005244425,0.0004405537,1,0,0,0,0,0,0,0,0,0,0,0,0,0,1,1
0.2500000000,272.4383453533,-305.8870614826,5.4138925401,-2.5558108637,0.0121926963,-0.0199959397,-8.3321818890,-5.5280990735,-0.1219245747,0.0042995840,0.0248707566,0.0000706419,0.0263284434,-0.0341263417,-0.2486898399,0.0202329600,0.0007582384,-0.0013099499,1,0,0,0,0,0,0,0,0,0,0,0,0,0,1,1
0.2625000000,272.3342045351,-305.9561631818,5.4127086534,-2.5557571189,0.0125035807,-0.0199950567,-8.3318527835,-5.5285256528,-0.1250331977,0.0045524960,0.0248802345,0.0000542675,0.0277939339,-0.0361884734,-0.2487837760,0.0194105600,0.0004871685,0.0007100060,1,0,0,0,0,0,0,0,0,0,0,0,0,0,1,1
0.2750000000,272.2300684490,-306.0252702765,5.4115246289,-2.5557002127,0.0128145836,-0.0199943784,-8.3315053593,-5.5289780087,-0.1281429949,0.0047951280,0.0248863242,0.0000631426,0.0292026395,-0.0381649043,-0.2488436320,0.0179136000,-0.3225057380,-0.6916831838,1,0,0,0,0,0,0,0,0,0,0,0,0,0,1,1
0.2875000000,272.1259373253,-306.0943830687,5.4103404365,-2.5556402736,0.0131256627,-0.0199935891,-8.3311403263,-5.5294550700,-0.1312535403,0.0050190480,0.0208550024,-0.0085828972,0.0300569997,-0.0402847842,-0.2085172480,0.0167372800,-0.8357229055,-1.7925259730,1,0,0,0,0,0,0,0,0,0,0,0,0,0,1,1
0.3000000000,272.0218113781,-306.1635018360,5.4091560555,-2.5555775355,0.0133863502,-0.0201008753,-8.3307646138,-5.5299586298,-0.1338600059,0.0052282640,0.0104084661,-0.0309894719,0.0300797323,-0.0427802532,-0.1040590879,0.0152544000,-2.6027832330,4.5290198484,1,0,0,0,0,0,0,0,0,0,0,0,0,0,1,1
0.3125000000,271.9176906678,-306.2326269303,5.4079715194,-2.5555121822,0.0135164561,-0.0204882437,-8.3303886172,-5.5304933830,-0.1351607445,0.0054189440,-0.0221263243,0.0256232762,0.0275045896,-0.0467784896,0.2212818080,0.0140268800,-0.5801898672,-0.0212612734,1,0,0,0,0,0,0,0,0,0,0,0,0,0,1,1
0.3250000000,271.8135750045,-306.3017588354,5.4062672749,-2.5554444454,0.0132398770,-0.0201679527,-8.3300448098,-5.5310781141,-0.1323947219,0.0055942800,-0.0293786976,0.0253575103,0.0277488334,-0.0487214391,0.2937582480,0.0124377600,-0.6328187909,-2.6947673428,1,0,0,0,0,0,0,0,0,0,0,0,0,0,1,1
0.3375000000,271.7094634051,-306.3708985326,5.4043735943,-2.5553745169,0.0128726433,-0.0198509839,-8.3296979494,-5.5316871321,-0.1287227438,0.0057497520,-0.0372889325,-0.0083270815,0.0278814616,-0.0505002416,0.3728721040,0.0111193600,-0.2061223800,0.4419926366,1,0,0,0,0,0,0,0,0,0,0,0,0,0,1,1
0.3500000000,271.6053557768,-306.4400463755,5.4024797159,-2.5553026450,0.0124065316,-0.0199550724,-8.3293494311,-5.5323183851,-0.1240618425,0.0058887440,-0.0398654623,-0.0028021735,0.0285433971,-0.0517298419,0.3986152320,0.0095833600,-0.1062300268,0.2286550660,1,0,0,0,0,0,0,0,0,0,0,0,0,0,1,1
0.3625000000,271.5012520120,-306.5092026965,5.4005857483,-2.5552290357,0.0119082133,-0.0199900995,-8.3289926386,-5.5329650081,-0.1190791521,0.0060085360,-0.0411933376,0.0000560148,0.0292495822,-0.0526997239,0.4119052961,0.0085964800,0.0002868968,-0.0003462556,1,0,0,0,0,0,0,0,0,0,0,0,0,0,1,1
0.3750000000,271.3971521802,-306.5783676742,5.3986915790,-2.5551539290,0.0113932966,-0.0199893994,-8.3286270189,-5.5336237547,-0.1139303359,0.0061159920,-0.0411897514,0.0000516866,0.0300253515,-0.0534750644,0.4118713920,0.0065632000,0.0002127000,-0.0002850822,1,0,0,0,0,0,0,0,0,0,0,0,0,0,1,1
0.3875000000,271.2930563874,-306.6475414401,5.3967972466,-2.5550774791,0.0108784247,-0.0199887533,-8.3282517020,-5.5342921930,-0.1087819435,0.0061980320,-0.0411870927,0.0000481231,0.0306606061,-0.0540388092,0.4118471120,0.0056588800,0.0000372624,0.0000512784,1,0,0,0,0,0,0,0,0,0,0,0,0,0,1,1
0.4000000000,271.1889647605,-306.7167240640,5.3949027743,-2.5550000037,0.0103635861,-0.0199881517,-8.3278684444,-5.5349676781,-0.1036338546,0.0062687680,-0.0411866269,0.0000487641,0.0312331273,-0.0545082965,0.4118446480,0.0042528000,1.4574918765,-0.0087311494,1,0,0,0,0,0,0,0,0,0,0,0,0,0,1,1
0.4125000000,271.0848774166,-306.7859156010,5.3930080854,-2.5549216441,0.0098487532,-0.0199875422,-8.3274780303,-5.5356490318,-0.0984857965,0.0063219280,-0.0229679784,-0.0000603753,0.0331418698,-0.0538785055,0.2296675120,0.0024524800,0.5310044350,0.0081916142,1,0,0,0,0,0,0,0,0,0,0,0,0,0,1,1
0.4250000000,270.9807944578,-306.8551160833,5.3916366523,-2.5548426200,0.0095616535,-0.0199882969,-8.3270637569,-5.5363225131,-0.0956149526,0.0063525840,-0.0163304230,0.0000420199,0.0338857492,-0.0537523246,0.1632938481,0.0016032000,0.0000161062,0.0000217532,1,0,0,0,0,0,0,0,0,0,0,0,0,0,1,1
0.4375000000,270.8767164143,-306.9243252160,5.3904559686,-2.5547632127,0.0093575232,-0.0199877716,-8.3266401851,-5.5369944172,-0.0935737795,0.0063726240,-0.0163302217,0.0000422918,0.0340288114,-0.0538981551,0.1632950719,0.0003641600,-0.0000645889,0.0001333269,1,0,0,0,0,0,0,0,0,0,0,0,0,0,1,1
0.4500000000,270.7726434823,-306.9935429064,5.3892750791,-2.5546835549,0.0091533954,-0.0199872430,-8.3262148249,-5.5376681441,-0.0915325911,0.0063771760,-0.0163310290,0.0000439584,0.0340860504,-0.0539149744,0.1633034480,-0.0015788800,0.0008355540,-0.0018902464,1,0,0,0,0,0,0,0,0,0,0,0,0,0,1,1
0.4625000000,270.6685756750,-307.0627691544,5.3880939575,-2.5546038402,0.0089492576,-0.0199866935,-8.3257887493,-5.5383420813,-0.0894912980,0.0063574400,-0.0163205846,0.0000203303,0.0340096482,-0.0537291359,0.1631993200,-0.0022092800,0.0053415882,-0.0089382592,1,0,0,0,0,0,0,0,0,0,0,0,0,0,1,1
0.4750000000,270.5645129848,-307.1320039281,5.3869126329,-2.5545243722,0.0087452503,-0.0199864394,-8.3253636287,-5.5390136955,-0.0874513065,0.0063298240,-0.0162538147,-0.0000913980,0.0338934383,-0.0534749851,0.1625318960,-0.0038118400,-0.0063003837,0.0101465152,1,0,0,0,0,0,0,0,0,0,0,0,0,0,1,1
0.4875000000,270.4604553973,-307.2012471852,5.3857310902,-2.5544452494,0.0085420776,-0.0199875818,-8.3249399607,-5.5396821328,-0.0854196578,0.0062821760,-0.0163325695,0.0000354335,0.0336557712,-0.0530610939,0.1633197600,-0.0051020800,0.0065627554,0.0142588889,1,0,0,0,0,0,0,0,0,0,0,0,0,0,1,1
0.5000000000,270.3564028821,-307.2704988567,5.3845493326,-2.5543667222,0.0083379205,-0.0199871389,-8.3245192636,-5.5403453965,-0.0833781608,0.0062184000,-0.0162505351,0.0002136696,0.0333399642,-0.0525055545,0.1624996880,-0.0061952000,-1.1723129578,0.1610251235,1,0,0,0,0,0,0,0,0,0,0,0,0,0,1,1
0.5125000000,270.2523553916,-307.3397588547,5.3833673768,-2.5542889922,0.0081347888,-0.0199844681,-8.3241025140,-5.5410017159,-0.0813469147,0.0061409600,-0.0309044471,0.0022264836,0.0319860121,-0.0524767893,0.3090428880,-0.0077145600,-0.5214452866,-0.2185953540,1,0,0,0,0,0,0,0,0,0,0,0,0,0,1,1
0.5250000000,270.1483128698,-307.4090270711,5.3814996156,-2.5542122302,0.0077484832,-0.0199566370,-8.3237026889,-5.5416576758,-0.0774838786,0.0060445280,-0.0374225131,-0.0005059583,0.0311579122,-0.0518701892,0.3742162559,-0.0086444800,-0.0220523780,-0.0482551122,1,0,0,0,0,0,0,0,0,0,0,0,0,0,1,1
0.5375000000,270.0442749436,-307.4783035736,5.3793812260,-2.5541366736,0.0072807018,-0.0199629615,-8.3233132149,-5.5423060531,-0.0728061754,0.0059364720,-0.0376981679,-0.0011091472,0.0306931118,-0.0508820588,0.3769717121,-0.0097990400,0.0444207382,0.0938045374,1,0,0,0,0,0,0,0,0,0,0,0,0,0,1,1
0.5500000000,269.9402414269,-307.5475882832,5.3772627665,-2.5540624677,0.0068094747,-0.0199768258,-8.3229295511,-5.5429420789,-0.0680940290,0.0058139840,-0.0371429086,0.0000634095,0.0301951208,-0.0497425355,0.3714197920,-0.0106547200,-0.0006111269,0.0004619032,1,0,0,0,0,0,0,0,0,0,0,0,0,0,1,1
0.5625000000,269.8362122551,-307.6168810133,5.3751445141,-2.5539897929,0.0063451883,-0.0199760332,-8.3225521121,-5.5435638606,-0.0634512816,0.0056808000,-0.0371505477,0.0000691833,0.0296035797,-0.0485367549,0.3714975520,-0.0120384000,-0.0002043835,-0.0017539377,1,0,0,0,0,0,0,0,0,0,0,0,0,0,1,1
0.5750000000,269.7321873687,-307.6861815536,5.3730258220,-2.5539187829,0.0058808065,-0.0199751684,-8.3221820673,-5.5441705700,-0.0588075622,0.0055303200,-0.0371531025,0.0000472591,0.0289161585,-0.0471868810,0.3715241200,-0.0131385600,0.3320986068,-0.7167337074,1,0,0,0,0,0,0,0,0,0,0,0,0,0,1,1
0.5875000000,269.6281666826,-307.7554896784,5.3709068792,-2.5538496539,0.0054163927,-0.0199745777,-8.3218206153,-5.5447604060,-0.0541635107,0.0053660880,-0.0330018699,-0.0089119122,0.0283243907,-0.0456081155,0.3300057840,-0.0137958400,0.8273459136,-1.7666900209,1,0,0,0,0,0,0,0,0,0,0,0,0,0,1,1
0.6000000000,269.5241501000,-307.8248051440,5.3689439428,-2.5537825778,0.0050038693,-0.0200859766,-8.3214665605,-5.5453305075,-0.0500384384,0.0051936400,-0.0226600460,-0.0309955375,0.0278850265,-0.0438287957,0.2265973200,-0.0149888000,1.6613922669,4.4827360010,1,0,0,0,0,0,0,0,0,0,0,0,0,0,1,1
0.6125000000,269.4201375704,-307.8941276602,5.3673681131,-2.5537176573,0.0047206187,-0.0204734208,-8.3211179976,-5.5458783674,-0.0472059719,0.0050062800,-0.0018926427,0.0250386625,0.0276913659,-0.0417063774,0.0189233440,-0.0160012800,0.2560380491,0.0198050088,1,0,0,0,0,0,0,0,0,0,0,0,0,0,1,1
0.6250000000,269.3161290927,-307.9634568762,5.3664871651,-2.5536550788,0.0046969607,-0.0201604375,-8.3207718555,-5.5463996971,-0.0469694301,0.0048062640,0.0013078329,0.0252862251,0.0267098662,-0.0399568812,-0.0130790959,-0.0166732800,0.6394428913,-2.6725449563,1,0,0,0,0,0,0,0,0,0,0,0,0,0,1,1
0.6375000000,269.2121247572,-308.0327923562,5.3656959724,-2.5535950005,0.0047133086,-0.0198443597,-8.3204379823,-5.5468991582,-0.0471329188,0.0045978480,0.0093008691,-0.0081205868,0.0258741525,-0.0380092130,-0.0930094400,-0.0177702400,0.1895963374,0.4061631993,1,0,0,0,0,0,0,0,0,0,0,0,0,0,1,1
0.6500000000,269.1081244228,-308.1021338028,5.3652046060,-2.5535375274,0.0048295695,-0.0199458670,-8.3201145553,-5.5473742733,-0.0482955368,0.0043757200,0.0116708233,-0.0030435468,0.0247507914,-0.0360883924,-0.1167082880,-0.0184147200,0.1138588668,0.2453234608,1,0,0,0,0,0,0,0,0,0,0,0,0,0,1,1
0.6625000000,269.0041279966,-308.1714808609,5.3648021801,-2.5534828309,0.0049754548,-0.0199839114,-8.3198051704,-5.5478253782,-0.0497543904,0.0041455360,0.0130940591,0.0000229964,0.0235505483,-0.0341220612,-0.1309395280,-0.0192441600,-0.0265056602,0.0555498888,1,0,0,0,0,0,0,0,0,0,0,0,0,0,1,1
0.6750000000,268.9001353129,-308.2408332087,5.3644531741,-2.5534310117,0.0051391305,-0.0199836239,-8.3195107886,-5.5482519040,-0.0513911345,0.0039049840,0.0127627384,0.0007173700,0.0222207507,-0.0321174409,-0.1276255040,-0.0202105600,-0.0204032009,-0.0024421110,1,0,0,0,0,0,0,0,0,0,0,0,0,0,1,1
0.6875000000,268.7961461867,-308.3101905177,5.3641040164,-2.5533821994,0.0052986648,-0.0199746568,-8.3192330292,-5.5486533720,-0.0529864533,0.0036523520,0.0125076984,0.0006868436,0.0208257933,-0.0300111085,-0.1250752000,-0.0205248000,-0.0254038638,-0.0536051758,1,0,0,0,0,0,0,0,0,0,0,0,0,0,1,1
0.7000000000,268.6921604002,-308.3795524587,5.3637547387,-2.5533365450,0.0054550110,-0.0199660713,-8.3189727067,-5.5490285108,-0.0545498933,0.0033957920,0.0121901501,0.0000167789,0.0194048390,-0.0278748913,-0.1218996480,-0.0216812800,-1.5161858129,-0.1475009288,1,0,0,0,0,0,0,0,0,0,0,0,0,0,1,1
0.7125000000,268.5881777328,-308.4489186969,5.3634053555,-2.5532940976,0.0056073879,-0.0199658615,-8.3187301463,-5.5493769470,-0.0560736389,0.0031247760,-0.0067621726,-0.0018269827,0.0170279872,-0.0262026779,0.0676248640,-0.0222048000,-0.7700165923,0.1465762788,1,0,0,0,0,0,0,0,0,0,0,0,0,0,1,1
0.7250000000,268.4841979503,-308.5182888797,5.3628960921,-2.5532550379,0.0055228607,-0.0199886988,-8.3185172965,-5.5497044805,-0.0552283281,0.0028472160,-0.0163873800,0.0000052208,0.0150627571,-0.0241773753,0.1638711919,-0.0228070400,-0.0004617108,-0.0000471662,1,0,0,0,0,0,0,0,0,0,0,0,0,0,1,1
0.7375000000,268.3802205389,-308.5876628283,5.3623287513,-2.5532194477,0.0053180184,-0.0199886335,-8.3183290119,-5.5500066976,-0.0531799382,0.0025621280,-0.0163931514,0.0000046312,0.0135089520,-0.0217869146,0.1639292961,-0.0233171200,-0.0003927499,-0.0002173199,1,0,0,0,0,0,0,0,0,0,0,0,0,0,1,1
0.7500000000,268.2762451184,-308.6570402610,5.3617613293,-2.5531874211,0.0051131041,-0.0199885756,-8.3181601501,-5.5502790341,-0.0511308220,0.0022706640,-0.0163980608,0.0000019147,0.0119196384,-0.0193436330,0.1639785600,-0.0240742400,-0.0013466256,-0.0019644373,1,0,0,0,0,0,0,0,0,0,0,0,0,0,1,1
0.7625000000,268.1722714449,-308.7264207932,5.3611938351,-2.5531590378,0.0049081283,-0.0199885517,-8.3180111546,-5.5505208295,-0.0490810900,0.0019697360,-0.0164148936,-0.0000226407,0.0102771374,-0.0168220311,0.1641470560,-0.0246560000,-0.0058836555,-0.0088119437,1,0,0,0,0,0,0,0,0,0,0,0,0,0,1,1
0.7750000000,268.0682992661,-308.7958040279,5.3606258671,-2.5531344161,0.0047029421,-0.0199888347,-8.3178826904,-5.5507311049,-0.0470292518,0.0016615360,-0.0164884393,-0.0001327900,0.0085919886,-0.0142413383,0.1648826640,-0.0245990400,0.0057321036,0.0103089845,1,0,0,0,0,0,0,0,0,0,0,0,0,0,1,1
0.7875000000,267.9643283234,-308.8651895588,5.3600553046,-2.5531136469,0.0044968366,-0.0199904946,-8.3177752905,-5.5509091216,-0.0449682185,0.0013540480,-0.0164167880,-0.0000039277,0.0069162720,-0.0116630720,0.1641663040,-0.0255667200,-0.0073689339,0.0146201494,1,0,0,0,0,0,0,0,0,0,0,0,0,0,1,1
0.8000000000,267.8603583579,-308.9345769810,5.3594875905,-2.5530967213,0.0042916268,-0.0199905437,-8.3176888371,-5.5510549100,-0.0429161397,0.0010344640,-0.0165088996,0.0001788242,0.0051672865,-0.0089881610,0.1650876080,-0.0260038400,0.2704940443,0.1592323969,1,0,0,0,0,0,0,0,0,0,0,0,0,0,1,1
0.8125000000,267.7563891022,-309.0039658728,5.3589166306,-2.5530837905,0.0040852655,-0.0199883084,-8.3176242460,-5.5511672620,-0.0408525446,0.0007094160,-0.0131277241,0.0021692291,0.0035010065,-0.0061923957,0.1312778320,-0.0263488000,0.1941530039,-0.2233495855,1,0,0,0,0,0,0,0,0,0,0,0,0,0,1,1
0.8250000000,267.6524202820,-309.0733558065,5.3582088249,-2.5530749228,0.0039211690,-0.0199611930,-8.3175804835,-5.5512446670,-0.0392115717,0.0003800560,-0.0107008115,-0.0006226407,0.0017667356,-0.0033900963,0.1070068080,-0.0268089600,0.0189413791,-0.0433796665,1,0,0,0,0,0,0,0,0,0,0,0,0,0,1,1
0.8375000000,267.5484516549,-309.1427463253,5.3574968179,-2.5530701721,0.0037874088,-0.0199689760,-8.3175583993,-5.5512870432,-0.0378739866,0.0000449440,-0.0104640443,-0.0011648865,-0.0000744790,-0.0005899967,0.1046397840,-0.0270393600,-0.0441377383,0.0930902109,1,0,0,0,0,0,0,0,0,0,0,0,0,0,1,1
0.8500000000,267.4444829596,-309.2121369741,5.3567939399,-2.5530696103,0.0036566083,-0.0199835371,-8.3175593302,-5.5512944181,-0.0365659893,-0.0002930480,-0.0110157660,-0.0000012589,-0.0019554988,0.0022180275,0.1101569600,-0.0274566400,-0.0007480200,0.0017451324,1,0,0,0,0,0,0,0,0,0,0,0,0,0,1,1
0.8625000000,267.3405139089,-309.2815273096,5.3560707074,-2.5530732734,0.0035189112,-0.0199835529,-8.3175837740,-5.5512666928,-0.0351890273,-0.0006362560,-0.0110251163,0.0000205553,-0.0038483896,0.0050809856,0.1102504720,-0.0277811200,-0.0008380401,-0.0020493863,1,0,0,0,0,0,0,0,0,0,0,0,0,0,1,1
0.8750000000,267.2365442035,-309.3509168867,5.3553474060,-2.5530812266,0.0033810973,-0.0199832959,-8.3176318789,-5.5512031805,-0.0338108964,-0.0009835200,-0.0110355918,-0.0000050621,-0.0057636676,0.0079776456,0.1103552720,-0.0280134400,0.0001045031,-0.0027783647,1,0,0,0,0,0,0,0,0,0,0,0,0,0,1,1
0.8875000000,267.1325735463,-309.4203052516,5.3546240370,-2.5530935206,0.0032431524,-0.0199833592,-8.3177039247,-5.5511034599,-0.0324314555,-0.0013336880,-0.0110342855,-0.0000397916,-0.0076947122,0.0108989118,0.1103422640,-0.0282656000,-0.0020479434,0.0041245713,1,0,0,0,0,0,0,0,0,0,0,0,0,0,1,1
0.9000000000,267.0286016372,-309.4896919466,5.3539010646,-2.5531101917,0.0031052238,-0.0199838566,-8.3178001086,-5.5509672235,-0.0310521772,-0.0016870080,-0.0110598848,0.0000117655,-0.0096436737,0.0138458869,0.1105983040,-0.0278534400,-0.2647897455,0.0017765868,1,0,0,0,0,0,0,0,0,0,0,0,0,0,1,1
0.9125000000,266.9246281740,-309.5590765099,5.3531774499,-2.5531312793,0.0029669752,-0.0199837095,-8.3179206545,-5.5507941499,-0.0296696984,-0.0020351760,-0.0143697566,0.0000339729,-0.0116405432,0.0166991126,0.1436969840,-0.0266880000,-0.0960288388,-0.0038337839,1,0,0,0,0,0,0,0,0,0,0,0,0,0,1,1
0.9250000000,266.8206528583,-309.6284584863,5.3523700056,-2.5531567190,0.0027873533,-0.0199832849,-8.3180661613,-5.5505854110,-0.0278734861,-0.0023687760,-0.0155701171,-0.0000139494,-0.0134961901,0.0194713373,0.1557006160,-0.0250195200,-0.0003934981,-0.0000999848,1,0,0,0,0,0,0,0,0,0,0,0,0,0,1,1
0.9375000000,266.7166753809,-309.6978374557,5.3515323361,-2.5531863287,0.0025927268,-0.0199834592,-8.3182348637,-5.5503420193,-0.0259272284,-0.0026815200,-0.0155750358,-0.0000151993,-0.0152062978,0.0220900788,0.1557498080,-0.0236652800,-0.0006631257,-0.0005035322,1,0,0,0,0,0,0,0,0,0,0,0,0,0,1,1
0.9500000000,266.6126954691,-309.7672130124,5.3506948074,-2.5532198477,0.0023980389,-0.0199836492,-8.3184249424,-5.5500658933,-0.0239803558,-0.0029773360,-0.0155833249,-0.0000214934,-0.0168221509,0.0245680327,0.1558327760,-0.0227744000,-0.0004581931,-0.0000992851,1,0,0,0,0,0,0,0,0,0,0,0,0,0,1,1
0.9625000000,266.5087128745,-309.8365847668,5.3498574017,-2.5532570644,0.0022032473,-0.0199839179,-8.3186352193,-5.5497587929,-0.0220324461,-0.0032620160,-0.0155890523,-0.0000227345,-0.0183759358,0.0269537121,0.1558901120,-0.0211052800,0.0255229315,0.0560340874,1,0,0,0,0,0,0,0,0,0,0,0,0,0,1,1
0.9750000000,266.4047273580,-309.9059523434,5.3490200971,-2.5532978396,0.0020083842,-0.0199842021,-8.3188649185,-5.5494218715,-0.0200838197,-0.0035258320,-0.0152700157,0.0006776916,-0.0198087045,0.0291692796,0.1526999040,-0.0199616000,0.0194272690,-0.0021182242,1,0,0,0,0,0,0,0,0,0,0,0,0,0,1,1
0.9875000000,266.3007386991,-309.9753153938,5.3481951269,-2.5533419125,0.0018175090,-0.0199757309,-8.3191125273,-5.5490572555,-0.0181750709,-0.0037753520,-0.0150271748,0.0006512138,-0.0211643823,0.0312643611,0.1502713600,-0.0187712000,0.0245978194,-0.0535536318,1,0,0,0,0,0,0,0,0,0,0,0,0,0,1,1
1.0000000000,266.1967466910,-310.0446735875,5.3473796318,-2.5533891044,0.0016296693,-0.0199675907,-8.3193770821,-5.5486664510,-0.0162966789,-0.0040099920,-0.0147197021,-0.0000182066,-0.0224375712,0.0332355979,0.1471967760,-0.0175744000,1.5666338749,-0.1405372206,1,0,0,0,0,0,0,0,0,0,0,0,0,0,1,1
1.0125000000,266.0927511392,-310.1140266133,5.3465759686,-2.5534392293,0.0014456730,-0.0199678183,-8.3196575517,-5.5482510060,-0.0144567192,-0.0042296720,0.0048632214,-0.0017749218,-0.0234066183,0.0352298598,-0.0486329120,-0.0162732800,0.7871755409,0.1413921172,1,0,0,0,0,0,0,0,0,0,0,0,0,0,1,1
1.0250000000,265.9887518618,-310.1833741800,5.3463232385,-2.5534921002,0.0015064633,-0.0199900048,-8.3199501345,-5.5478106328,-0.0150646306,-0.0044330880,0.0147029156,-0.0000075204,-0.0243973867,0.0370141209,-0.1470296240,-0.0149113600,-0.0002937499,-0.0000125456,1,0,0,0,0,0,0,0,0,0,0,0,0,0,1,1
1.0375000000,265.8847487605,-310.2527159711,5.3463733983,-2.5535475138,0.0016902497,-0.0199900989,-8.3202551017,-5.5473479562,-0.0169025009,-0.0046194800,0.0146992438,-0.0000076772,-0.0254067824,0.0385813024,-0.1469923120,-0.0139692800,-0.0002290410,0.0000877942,1,0,0,0,0,0,0,0,0,0,0,0,0,0,1,1
1.0500000000,265.7807417165,-310.3220517159,5.3464237024,-2.5536052573,0.0018739903,-0.0199901948,-8.3205726866,-5.5468656900,-0.0187399048,-0.0047940960,0.0146963808,-0.0000065798,-0.0263506151,0.0400506566,-0.1469636320,-0.0127468800,-0.0002742729,-0.0000587641,1,0,0,0,0,0,0,0,0,0,0,0,0,0,1,1
1.0625000000,265.6767305857,-310.3913811824,5.3464741192,-2.5536651835,0.0020576950,-0.0199902771,-8.3209020693,-5.5463650568,-0.0205769502,-0.0049534320,0.0146929523,-0.0000073143,-0.0272094720,0.0413930427,-0.1469292960,-0.0115699200,-0.0002006882,-0.0000920108,1,0,0,0,0,0,0,0,0,0,0,0,0,0,1,1
1.0750000000,265.5727152375,-310.4607041586,5.3465246828,-2.5537271014,0.0022413569,-0.0199903685,-8.3212421876,-5.5458476437,-0.0224135664,-0.0050980560,0.0146904437,-0.0000084645,-0.0279864438,0.0426131068,-0.1469041440,-0.0109088000,-0.0002117758,-0.0000390897,1,0,0,0,0,0,0,0,0,0,0,0,0,0,1,1
1.0875000000,265.4686955539,-310.5300204514,5.3465753890,-2.5537908271,0.0024249875,-0.0199904743,-8.3215920182,-5.5453149799,-0.0242498682,-0.0052344160,0.0146877965,-0.0000089531,-0.0287174496,0.0437646229,-0.1468776080,-0.0093504000,-0.0001900239,-0.0000164461,1,0,0,0,0,0,0,0,0,0,0,0,0,0,1,1
1.1000000000,265.3646714244,-310.5993298787,5.3466262305,-2.5538562573,0.0026085849,-0.0199905862,-8.3219509863,-5.5447679221,-0.0260858383,-0.0053512960,0.0146854212,-0.0000091587,-0.0293401797,0.0447540909,-0.1468537840,-0.0083724800,-1.1553028310,-0.0006513529,1,0,0,0,0,0,0,0,0,0,0,0,0,0,1,1
1.1125000000,265.2606427551,-310.6686322834,5.3466772391,-2.5539231485,0.0027921527,-0.0199907007,-8.3223177386,-5.5442084960,-0.0279215106,-0.0054559520,0.0002441359,-0.0000173006,-0.0302417224,0.0454109824,-0.0024397600,-0.0073337600,-0.4175714633,0.0006006670,1,0,0,0,0,0,0,0,0,0,0,0,0,0,1,1
1.1250000000,265.1566094627,-310.7379275246,5.3464645436,-2.5539913479,0.0027952044,-0.0199909170,-8.3226957601,-5.5436408587,-0.0279520076,-0.0055476240,-0.0049755074,-0.0000097922,-0.0308668658,0.0460959668,0.0497550320,-0.0065094400,-0.0001305406,-0.0000106418,1,0,0,0,0,0,0,0,0,0,0,0,0,0,1,1
1.1375000000,265.0525713671,-310.8072155503,5.3461565852,-2.5540606932,0.0027330105,-0.0199910394,-8.3230815959,-5.5430646591,-0.0273300697,-0.0056289920,-0.0049771392,-0.0000099252,-0.0313121798,0.0467771708,0.0497712080,-0.0057235200,-0.0004906428,-0.0006047420,1,0,0,0,0,0,0,0,0,0,0,0,0,0,1,1
1.1500000000,264.9485283606,-310.8764962792,5.3458488025,-2.5541310556,0.0026707963,-0.0199911634,-8.3234729982,-5.5424799445,-0.0267079296,-0.0057005360,-0.0049832722,-0.0000174845,-0.0317028884,0.0473764477,0.0498325440,-0.0046982400,-0.0004845035,0.0006495529,1,0,0,0,0,0,0,0,0,0,0,0,0,0,1,1
1.1625000000,264.8444803828,-310.9457696175,5.3455412708,-2.5542023123,0.0026085054,-0.0199913820,-8.3238692843,-5.5418877389,-0.0260850228,-0.0057592640,-0.0049893285,-0.0000093651,-0.0320225091,0.0478692446,0.0498931120,-0.0037945600,-0.0000054476,-0.0001574700,1,0,0,0,0,0,0,0,0,0,0,0,0,0,1,1
1.1750000000,264.7404273840,-311.0150354879,5.3452339230,-2.5542743031,0.0025461388,-0.0199914990,-8.3242695656,-5.5412893733,-0.0254613589,-0.0058066960,-0.0049893966,-0.0000113335,-0.0322792880,0.0482681520,0.0498938080,-0.0029043200,0.0003150318,0.0003047650,1,0,0,0,0,0,0,0,0,0,0,0,0,0,1,1
1.1875000000,264.6363693244,-311.0842938278,5.3449267898,-2.5543468868,0.0024837713,-0.0199916407,-8.3246730567,-5.5406860214,-0.0248376863,-0.0058430000,-0.0049854587,-0.0000075239,-0.0324742688,0.0485745461,0.0498544320,-0.0020966400,0.0000907486,-0.0000475074,1,0,0,0,0,0,0,0,0,0,0,0,0,0,1,1
1.2000000000,264.5323061739,-311.1535445891,5.3446198828,-2.5544199243,0.0024214531,-0.0199917348,-8.3250789851,-5.5400788396,-0.0242145059,-0.0058692080,-0.0049843244,-0.0000081178,-0.0326132757,0.0487968188,0.0498431040,-0.0014003200,-1.0075919764,-0.0156852963,1,0,0,0,0,0,0,0,0,0,0,0,0,0,1,1
1.2125000000,264.4282379114,-311.2227877368,5.3443131590,-2.5544932894,0.0023591490,-0.0199918362,-8.3254866511,-5.5394688794,-0.0235914671,-0.0058867120,-0.0175792241,-0.0002041840,-0.0329366402,0.0487918906,0.1757898640,-0.0004396800,-0.3641080416,0.0172180603,1,0,0,0,0,0,0,0,0,0,0,0,0,0,1,1
1.2250000000,264.3241645230,-311.2920232471,5.3440465861,-2.5545668733,0.0021394087,-0.0199943885,-8.3258983590,-5.5388589807,-0.0213940938,-0.0058922080,-0.0221305746,0.0000110418,-0.0330030380,0.0488138733,0.2213050800,-0.0000128000,0.0000106892,-0.0000257681,1,0,0,0,0,0,0,0,0,0,0,0,0,0,1,1
1.2375000000,264.2200859326,-311.3612511605,5.3437946614,-2.5546405259,0.0018627766,-0.0199942505,-8.3263108970,-5.5382488073,-0.0186277803,-0.0058923680,-0.0221304410,0.0000107197,-0.0329493609,0.0488515487,0.2213043600,0.0008614400,0.0002702068,-0.0005439347,1,0,0,0,0,0,0,0,0,0,0,0,0,0,1,1
1.2500000000,264.1160021282,-311.4304714844,5.3435429264,-2.5547141805,0.0015861461,-0.0199941165,-8.3267227641,-5.5376381630,-0.0158614758,-0.0058816000,-0.0221270634,0.0000039205,-0.0328351493,0.0487982525,0.2212706800,0.0013075200,0.0000257909,-0.0000008974,1,0,0,0,0,0,0,0,0,0,0,0,0,0,1,1
1.2625000000,264.0119131358,-311.4996842219,5.3432914939,-2.5547877005,0.0013095578,-0.0199940675,-8.3271332034,-5.5370281848,-0.0130955923,-0.0058652560,-0.0221267410,0.0000039093,-0.0326901403,0.0486985091,0.2212675360,0.0019577600,0.0001750965,0.0002889086,1,0,0,0,0,0,0,0,0,0,0,0,0,0,1,1
1.2750000000,263.9078189859,-311.5688893833,5.3430402445,-2.5548610162,0.0010329735,-0.0199940186,-8.3275418301,-5.5364194534,-0.0103297481,-0.0058407840,-0.0221245523,0.0000075206,-0.0325000855,0.0485309536,0.2212457200,0.0028697600,0.0001889510,0.0002771465,1,0,0,0,0,0,0,0,0,0,0,0,0,0,1,1
1.2875000000,263.8037197162,-311.6380869895,5.3427892410,-2.5549340260,0.0007564166,-0.0199939246,-8.3279480812,-5.5358128165,-0.0075641766,-0.0058049120,-0.0221221904,0.0000109850,-0.0322470591,0.0482685073,0.2212221440,0.0030720000,0.0000931782,0.0000660716,1,0,0,0,0,0,0,0,0,0,0,0,0,0,1,1
1.3000000000,263.6996153742,-311.7072770761,5.3425384802,-2.5550065874,0.0004798892,-0.0199937873,-8.3283511695,-5.5352094602,-0.0047988998,-0.0057665120,-0.0221210257,0.0000118109,-0.0319800526,0.0479848369,0.2212105200,0.0035584000,-0.2622539330,0.0016962759,1,0,0,0,0,0,0,0,0,0,0,0,0,0,1,1
1.3125000000,263.5955060095,-311.7764596822,5.3422878995,-2.5550786688,0.0002033764,-0.0199936397,-8.3287509201,-5.5346096497,-0.0020337683,-0.0057220320,-0.0253991998,0.0000330143,-0.0316769569,0.0476522500,0.2539923040,0.0041414400,-0.0947692914,-0.0025006309,1,0,0,0,0,0,0,0,0,0,0,0,0,0,1,1
1.3250000000,263.4913916771,-311.8456348548,5.3418537835,-2.5551501942,-0.0001141136,-0.0199932270,-8.3291468821,-5.5340139966,0.0011411355,-0.0056702640,-0.0265838160,0.0000017564,-0.0313155685,0.0472707677,0.2658384800,0.0046131200,0.0000902707,0.0000135850,1,0,0,0,0,0,0,0,0,0,0,0,0,0,1,1
1.3375000000,263.3872724390,-311.9148026497,5.3413534373,-2.5552210725,-0.0004464113,-0.0199932051,-8.3295383267,-5.5334231120,0.0044641165,-0.0056126000,-0.0265826876,0.0000019262,-0.0309196448,0.0468415968,0.2658271760,0.0051737600,-0.0000242466,0.0002848147,1,0,0,0,0,0,0,0,0,0,0,0,0,0,1,1
1.3500000000,263.2831483679,-311.9839631268,5.3408532639,-2.5552912300,-0.0007786949,-0.0199931810,-8.3299248222,-5.5328375920,0.0077869562,-0.0055479280,-0.0265829907,0.0000054864,-0.0304849267,0.0463538089,0.2658301360,0.0053862400,0.0001135430,0.0000008918,1,0,0,0,0,0,0,0,0,0,0,0,0,0,1,1
1.3625000000,263.1790195432,-312.0531163546,5.3403532019,-2.5553605791,-0.0011109823,-0.0199931124,-8.3303058838,-5.5322581694,0.0111098329,-0.0054806000,-0.0265815714,0.0000054976,-0.0300357280,0.0458439173,0.2658158480,0.0058726400,0.0000531320,-0.0001513186,1,0,0,0,0,0,0,0,0,0,0,0,0,0,1,1
1.3750000000,263.0748860467,-312.1222624053,5.3398533114,-2.5554290866,-0.0014432519,-0.0199930437,-8.3306813305,-5.5316851205,0.0144325310,-0.0054071920,-0.0265809072,0.0000036061,-0.0295529528,0.0452831861,0.2658090720,0.0064204800,0.0000034180,-0.0002832593,1,0,0,0,0,0,0,0,0,0,0,0,0,0,1,1
1.3875000000,262.9707479652,-312.1914013588,5.3393535571,-2.5554966765,-0.0017755133,-0.0199929986,-8.3310507423,-5.5311190806,0.0177551444,-0.0053269360,-0.0265808645,0.0000000653,-0.0290324899,0.0446654600,0.2658084960,0.0064064000,0.0000837491,-0.0000804344,1,0,0,0,0,0,0,0,0,0,0,0,0,0,1,1
1.4000000000,262.8666053915,-312.2605333039,5.3388539381,-2.5555632632,-0.0021077741,-0.0199929978,-8.3314136485,-5.5305607624,0.0210777506,-0.0052468560,-0.0265798177,-0.0000009401,-0.0285130452,0.0440489005,0.2657978320,0.0069184000,0.6786760854,0.0004970195,1,0,0,0,0,0,0,0,0,0,0,0,0,0,1,1
1.4125000000,262.7624584184,-312.3296583295,5.3383544837,-2.5556288489,-0.0024400218,-0.0199930095,-8.3317700615,-5.5300101511,0.0244002235,-0.0051603760,-0.0180963666,0.0000052727,-0.0281505626,0.0432514356,0.1809622800,0.0069792000,0.2653665112,0.0004399148,1,0,0,0,0,0,0,0,0,0,0,0,0,0,1,1
1.4250000000,262.6583071440,-312.3987765325,5.3381328053,-2.5556933536,-0.0026662264,-0.0199929436,-8.3321219436,-5.5294695082,0.0266622520,-0.0050731360,-0.0147792852,0.0000107716,-0.0277106870,0.0424962753,0.1477921040,0.0074201600,0.0000836856,-0.0001305271,1,0,0,0,0,0,0,0,0,0,0,0,0,0,1,1
1.4375000000,262.5541516071,-312.4678880509,5.3380115099,-2.5557567678,-0.0028509674,-0.0199928090,-8.3324683271,-5.5289383047,0.0285096533,-0.0049803840,-0.0147782391,0.0000091400,-0.0271724856,0.0417402256,0.1477818400,0.0076832000,0.0006609707,-0.0009860205,1,0,0,0,0,0,0,0,0,0,0,0,0,0,1,1
1.4500000000,262.4499918739,-312.5369930145,5.3378903702,-2.5558190226,-0.0030356954,-0.0199926947,-8.3328079832,-5.5284165519,0.0303569263,-0.0048843440,-0.0147699770,-0.0000031852,-0.0266164690,0.0409565540,0.1476991440,0.0078739200,0.0005592306,0.0006167745,1,0,0,0,0,0,0,0,0,0,0,0,0,0,1,1
1.4625000000,262.3458280351,-312.6060915435,5.3377696328,-2.5558800769,-0.0032203201,-0.0199927345,-8.3331406891,-5.5279045950,0.0322031656,-0.0047859200,-0.0147629866,0.0000045244,-0.0260473842,0.0401528559,0.1476291520,0.0080006400,0.0001637941,-0.0000094177,1,0,0,0,0,0,0,0,0,0,0,0,0,0,1,1
1.4750000000,262.2416601831,-312.6751837610,5.3376492317,-2.5559399009,-0.0034048575,-0.0199926780,-8.3334662814,-5.5274026843,0.0340485300,-0.0046859120,-0.0147609392,0.0000044067,-0.0254695706,0.0393359343,0.1476085760,0.0081331200,-0.0001139737,0.0004992860,1,0,0,0,0,0,0,0,0,0,0,0,0,0,1,1
1.4875000000,262.1374884116,-312.7442697924,5.3375289772,-2.5559984748,-0.0035893692,-0.0199926229,-8.3337846510,-5.5269109851,0.0358936372,-0.0045842480,-0.0147623639,0.0000106478,-0.0248826904,0.0385052437,0.1476227360,0.0083040000,0.0000376828,-0.0000542374,1,0,0,0,0,0,0,0,0,0,0,0,0,0,1,1
1.5000000000,262.0333128158,-312.8133497652,5.3374087346,-2.5560557779,-0.0037738988,-0.0199924898,-8.3340956847,-5.5264296696,0.0377389214,-0.0044804480,-0.0147618928,0.0000099698,-0.0242841399,0.0376564961,0.1476179201,0.0084793600,0.6015904199,0.0229950333,1,0,0,0,0,0,0,0,0,0,0,0,0,0,1,1
1.5125000000,261.9291334929,-312.8824238097,5.3372885700,-2.5561117835,-0.0039584224,-0.0199923652,-8.3343992363,-5.5259589633,0.0395841454,-0.0043744560,-0.0072420126,0.0002974077,-0.0239304366,0.0366193995,0.0724193039,0.0087206400,0.2177585993,-0.0220639802,1,0,0,0,0,0,0,0,0,0,0,0,0,0,1,1
1.5250000000,261.8249505418,-312.9514920588,5.3376807660,-2.5561664642,-0.0040489476,-0.0199886476,-8.3346983669,-5.5255012209,0.0404893867,-0.0042654480,-0.0045200301,0.0000216080,-0.0234141731,0.0356536446,0.0451992960,0.0088262400,0.0001314870,-0.0001349917,1,0,0,0,0,0,0,0,0,0,0,0,0,0,1,1
1.5375000000,261.7207639838,-313.0205547030,5.3382582549,-2.5562197823,-0.0041054480,-0.0199883775,-8.3349910440,-5.5250555503,0.0410543779,-0.0041551200,-0.0045183865,0.0000199206,-0.0228006949,0.0347366887,0.0451834960,0.0086316800,0.0001731548,-0.0000452598,1,0,0,0,0,0,0,0,0,0,0,0,0,0,1,1
1.5500000000,261.6165738868,-313.0896119039,5.3388358733,-2.5562717213,-0.0041619278,-0.0199881285,-8.3352760527,-5.5246213417,0.0416191716,-0.0040472240,-0.0045162221,0.0000193548,-0.0222007614,0.0338397964,0.0451618400,0.0088339200,0.0001771941,-0.0000463556,1,0,0,0,0,0,0,0,0,0,0,0,0,0,1,1
1.5625000000,261.5123803451,-313.1586638015,5.3394136179,-2.5563223116,-0.0042183806,-0.0199878865,-8.3355535623,-5.5241983443,0.0421836946,-0.0039368000,-0.0045140071,0.0000187754,-0.0215870918,0.0329218562,0.0451396801,0.0089331200,0.0001791739,-0.0000469080,1,0,0,0,0,0,0,0,0,0,0,0,0,0,1,1
1.5750000000,261.4081834547,-313.2277105390,5.3399914852,-2.5563715216,-0.0042748057,-0.0199876519,-8.3358234008,-5.5237868210,0.0427479406,-0.0038251360,-0.0045117675,0.0000181890,-0.0209666007,0.0319933569,0.0451172720,0.0089376000,0.0001792602,-0.0000469575,1,0,0,0,0,0,0,0,0,0,0,0,0,0,1,1
1.5875000000,261.3039833129,-313.2967522612,5.3405694717,-2.5564193358,-0.0043312027,-0.0199874245,-8.3360854834,-5.5233869041,0.0433119065,-0.0037134160,-0.0045095267,0.0000176021,-0.0203460568,0.0310644394,0.0450948480,0.0091206400,0.0001523779,0.0000215229,1,0,0,0,0,0,0,0,0,0,0,0,0,0,1,1
1.6000000000,261.1997800171,-313.3657891131,5.3411475740,-2.5564657535,-0.0043875718,-0.0199872045,-8.3363398091,-5.5229985986,0.0438755921,-0.0035994080,-0.0045076220,0.0000178711,-0.0197129153,0.0301162618,0.0450758000,0.0091360000,-0.8507499865,0.0637527041,1,0,0,0,0,0,0,0,0,0,0,0,0,0,1,1
1.6125000000,261.0955736665,-313.4348212426,5.3417257741,-2.5565107461,-0.0044439171,-0.0199869811,-8.3365862205,-5.5226221453,0.0444390396,-0.0034852080,-0.0151419968,0.0008147799,-0.0186738876,0.0294346643,0.1514237600,0.0089241600,-0.2735059318,-0.0646315078,1,0,0,0,0,0,0,0,0,0,0,0,0,0,1,1
1.6250000000,260.9913643604,-313.5038487980,5.3422433555,-2.5565543112,-0.0046331921,-0.0199767963,-8.3368196441,-5.5222542120,0.0463318366,-0.0033736560,-0.0185608210,0.0000068861,-0.0178946846,0.0286127303,0.1856079680,0.0089715200,0.0071137998,-0.0142095806,1,0,0,0,0,0,0,0,0,0,0,0,0,0,1,1
1.6375000000,260.8871523225,-313.5728718401,5.3427390783,-2.5565964819,-0.0048652023,-0.0199767102,-8.3370433277,-5.5218965529,0.0486519362,-0.0032615120,-0.0184718985,-0.0001707337,-0.0172421141,0.0276997186,0.1847170560,0.0091980800,0.0002916644,0.0001474586,1,0,0,0,0,0,0,0,0,0,0,0,0,0,1,1
1.6500000000,260.7829377004,-313.6418904814,5.3432349019,-2.5566372508,-0.0050961011,-0.0199788444,-8.3372588541,-5.5215503064,0.0509608994,-0.0031465360,-0.0184682527,-0.0001688905,-0.0165707512,0.0267652165,0.1846804240,0.0089145600,0.0001887008,-0.0000596322,1,0,0,0,0,0,0,0,0,0,0,0,0,0,1,1
1.6625000000,260.6787206034,-313.7109048651,5.3437308227,-2.5566765825,-0.0053269542,-0.0199809556,-8.3374659885,-5.5212157412,0.0532694047,-0.0030351040,-0.0184658939,-0.0001696359,-0.0159190524,0.0258602424,0.1846566080,0.0089644800,-0.0071094953,0.0150640895,1,0,0,0,0,0,0,0,0,0,0,0,0,0,1,1
1.6750000000,260.5745011390,-313.7799151287,5.3442268371,-2.5567145213,-0.0055577779,-0.0199830760,-8.3376649767,-5.5208924882,0.0555776123,-0.0029230480,-0.0185547626,0.0000186653,-0.0152596377,0.0249529162,0.1855450960,0.0089881600,-0.0003338699,0.0002549189,1,0,0,0,0,0,0,0,0,0,0,0,0,0,1,1
1.6875000000,260.4702794150,-313.8489214110,5.3447229416,-2.5567510594,-0.0057897124,-0.0199828427,-8.3378557221,-5.5205805767,0.0578969260,-0.0028106960,-0.0185589360,0.0000218517,-0.0146023702,0.0240405106,0.1855865360,0.0087846400,0.0002488066,-0.0001531772,1,0,0,0,0,0,0,0,0,0,0,0,0,0,1,1
1.7000000000,260.3660555409,-313.9179238498,5.3452191597,-2.5567861931,-0.0060216991,-0.0199825695,-8.3380382517,-5.5202800703,0.0602167577,-0.0027008880,-0.0185558259,0.0000199370,-0.0139595858,0.0231489881,0.1855551760,0.0087769600,-0.4105919533,0.0031712860,1,0,0,0,0,0,0,0,0,0,0,0,0,0,1,1
1.7125000000,260.2618296229,-313.9869225809,5.3457154898,-2.5568199542,-0.0062536469,-0.0199823203,-8.3382127466,-5.5199907080,0.0625361974,-0.0025911760,-0.0236882253,0.0000595781,-0.0130383997,0.0224430882,0.2368835040,0.0087462400,-0.1686111385,-0.0026858076,1,0,0,0,0,0,0,0,0,0,0,0,0,0,1,1
1.7250000000,260.1576017669,-314.0559177397,5.3461714748,-2.5568523439,-0.0065497498,-0.0199815756,-8.3383757266,-5.5197101694,0.0654972412,-0.0024818480,-0.0257958645,0.0000260055,-0.0122552134,0.0216503484,0.2579552400,0.0086956800,0.0002689158,-0.0001990594,1,0,0,0,0,0,0,0,0,0,0,0,0,0,1,1
1.7375000000,260.0533721656,-314.1249094033,5.3466034068,-2.5568833670,-0.0068721981,-0.0199812505,-8.3385289167,-5.5194395400,0.0687216817,-0.0023731520,-0.0257925031,0.0000235173,-0.0115854373,0.0207900658,0.2579195760,0.0086265600,0.0001190887,-0.0003379519,1,0,0,0,0,0,0,0,0,0,0,0,0,0,1,1
1.7500000000,259.9491409689,-314.1938976765,5.3470354460,-2.5569130314,-0.0071946044,-0.0199809566,-8.3386737347,-5.5191796642,0.0719456764,-0.0022653200,-0.0257910145,0.0000192929,-0.0109203983,0.0199369611,0.2579040960,0.0086099200,0.0001993823,-0.0000628737,1,0,0,0,0,0,0,0,0,0,0,0,0,0,1,1
1.7625000000,259.8449082914,-314.2628826853,5.3474675654,-2.5569413479,-0.0075169920,-0.0199807154,-8.3388102397,-5.5189304522,0.0751694776,-0.0021576960,-0.0257885222,0.0000185069,-0.0102566902,0.0190855345,0.2578785440,0.0083001600,0.0001352445,0.0000652672,1,0,0,0,0,0,0,0,0,0,0,0,0,0,1,1
1.7750000000,259.7406742478,-314.3318645556,5.3478997502,-2.5569683191,-0.0078393486,-0.0199804841,-8.3389384483,-5.5186918830,0.0783929594,-0.0020539440,-0.0257868316,0.0000193228,-0.0096144265,0.0182664383,0.2578609920,0.0085619200,0.0001495470,0.0000457136,1,0,0,0,0,0,0,0,0,0,0,0,0,0,1,1
1.7875000000,259.6364389491,-314.4008434083,5.3483319970,-2.5569939934,-0.0081616840,-0.0199802425,-8.3390586286,-5.5184635525,0.0816162218,-0.0019469200,-0.0257849623,0.0000198942,-0.0089540933,0.0174198338,0.2578416240,0.0083488000,0.0001966883,-0.0000610162,1,0,0,0,0,0,0,0,0,0,0,0,0,0,1,1
1.8000000000,259.5322025094,-314.4698193684,5.3487643024,-2.5570183299,-0.0084839960,-0.0199799939,-8.3391705548,-5.5182458046,0.0848392421,-0.0018425600,-0.0257825037,0.0000191315,-0.0083087040,0.0165955333,0.2578163279,0.0082963200,0.8743552344,0.0028371244,1,0,0,0,0,0,0,0,0,0,0,0,0,0,1,1
1.8125000000,259.4279650404,-314.5387925577,5.3491966631,-2.5570413619,-0.0088062773,-0.0199797547,-8.3392744137,-5.5180383605,0.0880619462,-0.0017388560,-0.0148530633,0.0000545956,-0.0084926879,0.0152301895,0.1485120162,0.0080243200,0.3166050640,-0.0035805061,1,0,0,0,0,0,0,0,0,0,0,0,0,0,1,1
1.8250000000,259.3237266530,-314.6077630970,5.3498591638,-2.5570630976,-0.0089919406,-0.0199790723,-8.3393805721,-5.5178479830,0.0899183464,-0.0016385520,-0.0108955000,0.0000098392,-0.0082179201,0.0142092905,0.1089474398,0.0080864000,0.0002232011,-0.0001351618,1,0,0,0,0,0,0,0,0,0,0,0,0,0,1,1
1.8375000000,259.2194871975,-314.6767312734,5.3506050722,-2.5570835795,-0.0091281343,-0.0199789493,-8.3394832963,-5.5176703670,0.0912801894,-0.0015374720,-0.0108927100,0.0000081497,-0.0076477217,0.0133744976,0.1089226321,0.0078566400,0.0003300809,0.0002992093,1,0,0,0,0,0,0,0,0,0,0,0,0,0,1,1
1.8500000000,259.1152466738,-314.7456972763,5.3513510490,-2.5571027979,-0.0092642932,-0.0199788474,-8.3395788927,-5.5175031857,0.0926417223,-0.0014392640,-0.0108885839,0.0000118898,-0.0070935971,0.0125636499,0.1088812320,0.0078886400,0.0001631900,-0.0000598786,1,0,0,0,0,0,0,0,0,0,0,0,0,0,1,1
1.8625000000,259.0110051704,-314.8146612310,5.3520970688,-2.5571207887,-0.0094004005,-0.0199786988,-8.3396675627,-5.5173461401,0.0940027377,-0.0013406560,-0.0108865441,0.0000111413,-0.0065370835,0.0117493977,0.1088606960,0.0076134400,0.0002534816,-0.0002628115,1,0,0,0,0,0,0,0,0,0,0,0,0,0,1,1
1.8750000000,258.9067627761,-314.8836232637,5.3528431286,-2.5571375469,-0.0095364823,-0.0199785595,-8.3397492762,-5.5171992726,0.0953634964,-0.0012454880,-0.0108833755,0.0000078562,-0.0059997302,0.0109638198,0.1088288639,0.0076409600,0.0002390911,-0.0002309143,1,0,0,0,0,0,0,0,0,0,0,0,0,0,1,1
1.8875000000,258.8025195768,-314.9525834957,5.3535892254,-2.5571531155,-0.0096725245,-0.0199784613,-8.3398242729,-5.5170622249,0.0967238572,-0.0011499760,-0.0108803869,0.0000049698,-0.0054605021,0.0101753160,0.1087988481,0.0075110400,0.0001558124,-0.0000570295,1,0,0,0,0,0,0,0,0,0,0,0,0,0,1,1
1.9000000000,258.6982756587,-315.0215420490,5.3543353562,-2.5571674902,-0.0098085293,-0.0199783992,-8.3398925291,-5.5169350334,0.0980838428,-0.0010560880,-0.0108784393,0.0000042569,-0.0049302608,0.0094005141,0.1087792160,0.0074547200,0.5680132162,0.0799281767,1,0,0,0,0,0,0,0,0,0,0,0,0,0,1,1
1.9125000000,258.5940311065,-315.0904990435,5.3550815179,-2.5571806913,-0.0099445098,-0.0199783460,-8.3399541574,-5.5168175270,0.0994435830,-0.0009629040,-0.0037782741,0.0010033591,-0.0049980259,0.0082383108,0.0377747200,0.0073024000,0.1727754658,-0.0812899454,1,0,0,0,0,0,0,0,0,0,0,0,0,0,1,1
1.9250000000,258.4897860043,-315.1594545980,5.3561653550,-2.5571927276,-0.0099917382,-0.0199658040,-8.3400166327,-5.5167145481,0.0999157670,-0.0008716240,-0.0016185807,-0.0000127652,-0.0046734484,0.0073586717,0.0161828480,0.0072896000,-0.0067248134,-0.0141142949,1,0,0,0,0,0,0,0,0,0,0,0,0,0,1,1
1.9375000000,258.3855402490,-315.2284089519,5.3573560277,-2.5572036229,-0.0100119705,-0.0199659636,-8.3400750508,-5.5166225647,0.1001180526,-0.0007805040,-0.0017026409,-0.0001891939,-0.0041633904,0.0066036383,0.0170256399,0.0072774400,0.0000657278,0.0001000320,1,0,0,0,0,0,0,0,0,0,0,0,0,0,1,1
1.9500000000,258.2812938631,-315.2973622608,5.3585435031,-2.5572133792,-0.0100332535,-0.0199683285,-8.3401270933,-5.5165400193,0.1003308731,-0.0006895360,-0.0017018193,-0.0001879435,-0.0036612950,0.0058451581,0.0170173442,0.0068761600,0.0001387124,-0.0000695342,1,0,0,0,0,0,0,0,0,0,0,0,0,0,1,1
1.9625000000,258.1770469274,-315.3663146417,5.3597309526,-2.5572219984,-0.0100545263,-0.0199706778,-8.3401728593,-5.5164669547,0.1005435899,-0.0006035840,-0.0017000854,-0.0001888127,-0.0031868989,0.0051284006,0.0169999918,0.0069568000,0.0074645540,0.0151184888,1,0,0,0,0,0,0,0,0,0,0,0,0,0,1,1
1.9750000000,258.0727995160,-315.4352662067,5.3609184204,-2.5572295432,-0.0100757773,-0.0199730379,-8.3402126957,-5.5164028498,0.1007560898,-0.0005166240,-0.0016067785,0.0000001684,-0.0027147370,0.0043981621,0.0160668801,0.0068614400,0.0007125869,0.0003479303,1,0,0,0,0,0,0,0,0,0,0,0,0,0,1,1
1.9875000000,257.9685517039,-315.5042170689,5.3621093344,-2.5572360010,-0.0100958621,-0.0199730358,-8.3402466298,-5.5163478727,0.1009569258,-0.0004308560,-0.0015978711,0.0000045176,-0.0022420404,0.0036825091,0.0159778879,0.0066540800,0.0001330534,-0.0000649820,1,0,0,0,0,0,0,0,0,0,0,0,0,0,1,1
2.0000000000,257.8643035627,-315.5731673417,5.3633005251,-2.5572413867,-0.0101158354,-0.0199729794,-8.3402746554,-5.5163018414,0.1011566494,-0.0003476800,-0.0015962080,0.0000037053,-0.0017831115,0.0029889310,0.0159612641,0.0066451200,1.4400327815,-0.0272869653,1,0,0,0,0,0,0,0,0,0,0,0,0,0,1,1
2.0125000000,257.7600551639,-315.6421171337,5.3644917261,-2.5572457327,-0.0101357880,-0.0199729330,-8.3402969442,-5.5162644797,0.1013561652,-0.0002646160,0.0164042018,-0.0003373818,-0.0028324965,0.0012989650,-0.1640424641,0.0065894400,0.5229900957,0.0268197008,1,0,0,0,0,0,0,0,0,0,0,0,0,0,1,1
2.0250000000,257.6558065792,-315.7110665530,5.3658347726,-2.5572490404,-0.0099307355,-0.0199771503,-8.3403323505,-5.5162482427,0.0993056344,-0.0001822480,0.0229415780,-0.0000021355,-0.0028781596,0.0002814030,-0.2294073679,0.0064998400,0.0001575865,-0.0000609428,1,0,0,0,0,0,0,0,0,0,0,0,0,0,1,1
2.0375000000,257.5515574085,-315.7800160185,5.3672331469,-2.5572513185,-0.0096439658,-0.0199771770,-8.3403683274,-5.5162447251,0.0964380423,-0.0001010000,0.0229435478,-0.0000028973,-0.0023751733,-0.0003601022,-0.2294248400,0.0064204800,0.0004732020,-0.0007408649,1,0,0,0,0,0,0,0,0,0,0,0,0,0,1,1
2.0500000000,257.4473075654,-315.8489657394,5.3686315345,-2.5572525810,-0.0093571714,-0.0199772132,-8.3403980171,-5.5162492264,0.0935702318,-0.0000207440,0.0229494629,-0.0000121581,-0.0018780616,-0.0009934224,-0.2294846080,0.0063283200,0.0001615099,-0.0000779006,1,0,0,0,0,0,0,0,0,0,0,0,0,0,1,1
2.0625000000,257.3430571364,-315.9179158091,5.3700299793,-2.5572528403,-0.0090703032,-0.0199773652,-8.3404214929,-5.5162616442,0.0907016742,0.0000583600,0.0229514817,-0.0000131319,-0.0013869411,-0.0016169714,-0.2295053839,0.0060556800,0.0002906422,0.0002713984,1,0,0,0,0,0,0,0,0,0,0,0,0,0,1,1
2.0750000000,257.2388062066,-315.9868663193,5.3714284296,-2.5572521108,-0.0087834096,-0.0199775293,-8.3404388296,-5.5162818563,0.0878328569,0.0001340560,0.0229551148,-0.0000097394,-0.0009146961,-0.0022121788,-0.2295422961,0.0061926400,0.0003366654,0.0003642899,1,0,0,0,0,0,0,0,0,0,0,0,0,0,1,1
2.0875000000,257.1345548583,-316.0558173574,5.3728269106,-2.5572504351,-0.0084964707,-0.0199776511,-8.3404502634,-5.5163095086,0.0849635782,0.0002114640,0.0229593231,-0.0000051858,-0.0004330541,-0.0028216440,-0.2295849359,0.0059161600,0.0001380018,-0.0000458093,1,0,0,0,0,0,0,0,0,0,0,0,0,0,1,1
2.1000000000,257.0303031753,-316.1247690130,5.3742254155,-2.5572477918,-0.0082094792,-0.0199777159,-8.3404556765,-5.5163447791,0.0820937665,0.0002854160,0.0229610481,-0.0000057584,0.0000297368,-0.0034021434,-0.2296027280,0.0061145600,-0.9724962082,0.0069385564,1,0,0,0,0,0,0,0,0,0,0,0,0,0,1,1
2.1125000000,256.9260512385,-316.1937213711,5.3756239182,-2.5572442241,-0.0079224661,-0.0199777879,-8.3404553048,-5.5163873059,0.0792237324,0.0003618480,0.0108048455,0.0000809736,0.0012882339,-0.0034861588,-0.1080433680,0.0058636800,-0.3533120392,-0.0068500816,1,0,0,0,0,0,0,0,0,0,0,0,0,0,1,1
2.1250000000,256.8217991309,-316.2626745200,5.3768429622,-2.5572397010,-0.0077874055,-0.0199767757,-8.3404392019,-5.5164308829,0.0778731903,0.0004351440,0.0063884450,-0.0000046524,0.0019876769,-0.0039023461,-0.0638799440,0.0058508800,0.0001105107,-0.0000283063,1,0,0,0,0,0,0,0,0,0,0,0,0,0,1,1
2.1375000000,256.7175471771,-316.3316283822,5.3779966914,-2.5572342617,-0.0077075499,-0.0199768339,-8.3404143559,-5.5164796622,0.0770746910,0.0005082800,0.0063898264,-0.0000050063,0.0023952780,-0.0045095241,-0.0638963521,0.0057542400,-0.0000402390,0.0003353058,1,0,0,0,0,0,0,0,0,0,0,0,0,0,1,1
2.1500000000,256.6132955325,-316.4005829922,5.3791504020,-2.5572279082,-0.0076276771,-0.0199768965,-8.3403844150,-5.5165360313,0.0762759866,0.0005802080,0.0063893234,-0.0000008149,0.0027964080,-0.0051066133,-0.0638913599,0.0055846400,0.0001131473,-0.0000461759,1,0,0,0,0,0,0,0,0,0,0,0,0,0,1,1
2.1625000000,256.5090442602,-316.4695384427,5.3803040172,-2.5572206556,-0.0075478106,-0.0199769066,-8.3403494598,-5.5165998639,0.0754773446,0.0006500160,0.0063907377,-0.0000013921,0.0031856962,-0.0056860026,-0.0639055361,0.0057484800,0.0000272227,-0.0002661796,1,0,0,0,0,0,0,0,0,0,0,0,0,0,1,1
2.1750000000,256.4047934219,-316.5384948238,5.3814576136,-2.5572125304,-0.0074679263,-0.0199769240,-8.3403096387,-5.5166709390,0.0746785254,0.0007218720,0.0063910780,-0.0000047194,0.0035864181,-0.0062825319,-0.0639089759,0.0053977600,0.0000338319,-0.0002288409,1,0,0,0,0,0,0,0,0,0,0,0,0,0,1,1
2.1875000000,256.3005430807,-316.6074522284,5.3826111439,-2.5572035070,-0.0073880379,-0.0199769830,-8.3402648084,-5.5167494706,0.0738796632,0.0007893440,0.0063915009,-0.0000075799,0.0039629627,-0.0068424542,-0.0639132480,0.0054963200,0.0001113519,-0.0000454339,1,0,0,0,0,0,0,0,0,0,0,0,0,0,1,1
2.2000000000,256.1962932962,-316.6764107434,5.3837646131,-2.5571936402,-0.0073081441,-0.0199770778,-8.3402152714,-5.5168350013,0.0730807476,0.0008580480,0.0063928928,-0.0000081478,0.0043461940,-0.0074125926,-0.0639272046,0.0052992000,-0.0892991086,0.0123470075,1,0,0,0,0,0,0,0,0,0,0,0,0,0,1,1
2.2125000000,256.0920441290,-316.7453704575,5.3849180569,-2.5571829146,-0.0072282329,-0.0199771796,-8.2656952212,-5.4676693760,0.0716362856,0.0009242880,0.0052766540,0.0001461898,5.9619977326,3.9328151790,-0.1039236826,0.0051488000,-0.0338751595,-0.0124991454,1,0,0,0,0,0,0,0,0,0,0,0,0,0,1,1
2.2250000000,255.9891918225,-316.8134078713,5.3861260660,-2.5571713610,-0.0071622748,-0.0199753523,-8.1911707834,-5.4185083026,0.0703431289,0.0009886480,0.0048532145,-0.0000100496,5.9622886615,3.9324475677,-0.0988226740,0.0050771200,-0.0034289617,-0.0000463424,1,0,0,0,0,0,0,0,0,0,0,0,0,0,1,1
2.2375000000,255.8872710426,-316.8808308855,5.3873488269,-2.5571590029,-0.0071016096,-0.0199754779,-8.1166427516,-5.3693517664,0.0691132622,0.0010521120,0.0048103525,-0.0000106288,5.9625421157,3.9320863906,-0.0975391750,0.0049344000,-0.0035819420,0.0001996754,1,0,0,0,0,0,0,0,0,0,0,0,0,0,1,1
2.2500000000,255.7862818373,-316.9476395504,5.3885603903,-2.5571458515,-0.0070414802,-0.0199756107,-8.0421115914,-5.3201996863,0.0678993914,0.0011137920,0.0047655782,-0.0000081329,5.9627766303,3.9317536694,-0.0962484810,0.0047244800,-0.0034581602,-0.0000061758,1,0,0,0,0,0,0,0,0,0,0,0,0,0,1,1
2.2625000000,255.6862242446,-317.0138339166,5.3897607464,-2.5571319291,-0.0069819105,-0.0199757124,-7.9675775382,-5.2710517081,0.0667016043,0.0011728480,0.0047223512,-0.0000082101,5.9629879128,3.9314555076,-0.0949845653,0.0046361600,-0.0034668713,-0.0000942307,1,0,0,0,0,0,0,0,0,0,0,0,0,0,1,1
2.2750000000,255.5870982988,-317.0794140292,5.3909499014,-2.5571172685,-0.0069228811,-0.0199758150,-7.8930408810,-5.2219074024,0.0655195679,0.0012308000,0.0046790153,-0.0000093880,5.9631845946,3.9311790312,-0.0937311918,0.0041606400,-0.0035841307,-0.0002674323,1,0,0,0,0,0,0,0,0,0,0,0,0,0,1,1
2.2875000000,255.4889040319,-317.1443799302,5.3921278536,-2.5571018835,-0.0068643934,-0.0199759324,-7.8185018014,-5.1727664990,0.0643531503,0.0012828080,0.0046342136,-0.0000127309,5.9633418570,3.9309619526,-0.0924756875,0.0009920000,-0.0035074922,-0.0000084966,1,0,0,0,0,0,0,0,0,0,0,0,0,0,1,1
2.3000000000,255.3916414699,-317.2087316522,5.3932945963,-2.5570858484,-0.0068064657,-0.0199760915,-7.7439607887,-5.1236282611,0.0632023765,0.0012952080,0.0045903700,-0.0000128371,5.9632882224,3.9310631134,-0.0912410767,-0.0031340800,-0.9006083230,0.0010107644,1,0,0,0,0,0,0,0,0,0,0,0,0,0,1,1
2.3125000000,255.2953106057,-317.2724691783,5.3944501376,-2.5570696583,-0.0067490861,-0.0199762520,-7.6694204546,-5.0744887475,0.0620669864,0.0012560320,-0.0066672340,-0.0000002025,5.9635524825,3.9319473185,0.0131143490,-0.0068268800,-1.8934734186,-0.0004048199,1,0,0,0,0,0,0,0,0,0,0,0,0,0,1,1
2.3250000000,255.1999113913,-317.3355924298,5.3953865820,-2.5570539579,-0.0068324265,-0.0199762545,-7.5948768643,-5.0253382649,0.0622234741,0.0011706960,-0.0303356518,-0.0000052628,5.9642673633,3.9336211286,0.2274835545,-0.0099321600,0.0237687825,0.0000881193,1,0,0,0,0,0,0,0,0,0,0,0,0,0,1,1
2.3375000000,255.1054439226,-317.3981011564,5.3958735174,-2.5570393242,-0.0072116222,-0.0199763203,-7.5203244414,-4.9761670423,0.0650331592,0.0010465440,-0.0300385420,-0.0000041613,5.9635720024,3.9347542260,0.2193659199,-0.0122918400,0.0236994682,-0.0000310889,1,0,0,0,0,0,0,0,0,0,0,0,0,0,1,1
2.3500000000,255.0119084757,-317.4599949274,5.3963556235,-2.5570262424,-0.0075871039,-0.0199763723,-7.4457806429,-4.9269817774,0.0677417054,0.0008928960,-0.0297422986,-0.0000045499,5.9627452177,3.9360762650,0.2113562744,-0.0144793600,0.0236020262,-0.0003903070,1,0,0,0,0,0,0,0,0,0,0,0,0,0,1,1
2.3625000000,254.9193049283,-317.5212735331,5.3968328844,-2.5570150812,-0.0079588827,-0.0199764292,-7.3712470927,-4.8777801354,0.0703504616,0.0007119040,-0.0294472733,-0.0000094287,5.9618034195,3.9375625913,0.2034367527,-0.0161395200,0.0236462037,0.0001526905,1,0,0,0,0,0,0,0,0,0,0,0,0,0,1,1
2.3750000000,254.8276331396,-317.5819367385,5.3973052512,-2.5570061824,-0.0083269736,-0.0199765470,-7.2967252117,-4.8285600882,0.0728605530,0.0005101600,-0.0291516958,-0.0000075201,5.9607837782,3.9391570197,0.1955914455,-0.0174054400,0.0235918676,0.0003506812,1,0,0,0,0,0,0,0,0,0,0,0,0,0,1,1
2.3875000000,254.7368929557,-317.6419842926,5.3977728058,-2.5569998054,-0.0086913698,-0.0199766410,-7.2222159595,-4.7793203034,0.0752729079,0.0002925920,-0.0288567974,-0.0000031366,5.9597142156,3.9408178617,0.1878311983,-0.0183155200,0.0235361291,0.0006286072,1,0,0,0,0,0,0,0,0,0,0,0,0,0,1,1
2.4000000000,254.6470842148,-317.7014159341,5.3982355271,-2.5569961480,-0.0090520797,-0.0199766802,-7.1477199503,-4.7300599655,0.0775885888,0.0000636480,-0.0285625958,0.0000047210,5.9586188941,3.9425088650,0.1801559247,-0.0190124800,0.0235896880,0.0001727293,1,0,0,0,0,0,0,0,0,0,0,0,0,0,1,1
2.4125000000,254.5582067500,-317.7602313980,5.3986933829,-2.5569953524,-0.0094091122,-0.0199766212,-7.0732374988,-4.6807787079,0.0798086571,-0.0001740080,-0.0282677247,0.0000068801,5.9575127334,3.9442075736,0.1725538071,-0.0193728000,0.2048149084,0.0038682866,1,0,0,0,0,0,0,0,0,0,0,0,0,0,1,1
2.4250000000,254.4702603925,-317.8184304182,5.3991464460,-2.5569975275,-0.0097624587,-0.0199765352,-6.9987687347,-4.6314764421,0.0819340280,-0.0004161680,-0.0257075384,0.0000552337,5.9562568573,3.9457762194,0.1460113235,-0.0193465600,1.0299199368,-0.0037140254,1,0,0,0,0,0,0,0,0,0,0,0,0,0,1,1
2.4375000000,254.3832449741,-317.8760127331,5.3996421574,-2.5570027296,-0.0100838030,-0.0199758448,-6.9243155051,-4.5821547838,0.0837304761,-0.0006580000,-0.0128335391,0.0000088084,5.9542885565,3.9467923542,0.0345203718,-0.0192000000,0.0107129915,0.0001829372,1,0,0,0,0,0,0,0,0,0,0,0,0,0,1,1
2.4500000000,254.2971602824,-317.9329781229,5.4003969122,-2.5570109546,-0.0102442222,-0.0199757347,-6.8498866143,-4.5328205721,0.0841476566,-0.0008980000,-0.0126996268,0.0000110951,5.9532508083,3.9483286179,0.0311411348,-0.0187187200,0.0107224478,0.0001783139,1,0,0,0,0,0,0,0,0,0,0,0,0,0,1,1
2.4625000000,254.2120058812,-317.9893265311,5.4011435279,-2.5570221796,-0.0104029676,-0.0199755960,-6.7754705482,-4.4834673809,0.0845227461,-0.0011319840,-0.0125655962,0.0000133240,5.9522748630,3.9497700865,0.0277843513,-0.0182860800,0.0106439394,0.0003604679,1,0,0,0,0,0,0,0,0,0,0,0,0,0,1,1
2.4750000000,254.1277816166,-318.0450577353,5.4018820100,-2.5570363294,-0.0105600375,-0.0199754295,-6.7010665379,-4.4340963895,0.0848560254,-0.0013605600,-0.0124325469,0.0000178299,5.9513571202,3.9511226741,0.0244713594,-0.0175897600,0.0107135004,0.0002342469,1,0,0,0,0,0,0,0,0,0,0,0,0,0,1,1
2.4875000000,254.0444873438,-318.1001715270,5.4026123598,-2.5570533364,-0.0107154443,-0.0199752066,-6.6266738591,-4.3847087038,0.0851480408,-0.0015804320,-0.0122986282,0.0000207580,5.9505107522,3.9523662632,0.0211870976,-0.0166182400,0.0107652571,0.0001552657,1,0,0,0,0,0,0,0,0,0,0,0,0,0,1,1
2.5000000000,253.9621229291,-318.1546677149,5.4033345853,-2.5570730918,-0.0108691772,-0.0199749471,-6.5522916250,-4.3353056782,0.0853991524,-0.0017881600,-0.0121640624,0.0000226988,5.9497490470,3.9534808477,0.0179336422,-0.0157164800,0.0107269987,0.0000264624,1,0,0,0,0,0,0,0,0,0,0,0,0,0,1,1
2.5125000000,253.8806882515,-318.2085461275,5.4040486914,-2.5570954438,-0.0110212280,-0.0199746634,-6.4779187847,-4.2858889139,0.0856097460,-0.0019846160,-0.0120299750,0.0000230296,5.9490660442,3.9544756686,0.0147199414,-0.0147072000,0.0107450770,0.0000126646,1,0,0,0,0,0,0,0,0,0,0,0,0,0,1,1
2.5250000000,253.8001832027,-318.2618066125,5.4047546788,-2.5571202515,-0.0111716027,-0.0199743755,-6.4035543613,-4.2364598974,0.0857803180,-0.0021684560,-0.0118956615,0.0000231879,5.9484650614,3.9553456510,0.0115404364,-0.0138796800,0.0108207857,0.0001318061,1,0,0,0,0,0,0,0,0,0,0,0,0,0,1,1
2.5375000000,253.7206076868,-318.3144490367,5.4054525526,-2.5571473572,-0.0113202984,-0.0199740857,-6.3291973374,-4.1870201775,0.0859112961,-0.0023419520,-0.0117604017,0.0000248354,5.9479341816,3.9561087115,0.0083897270,-0.0131347200,0.0108354884,0.0001246490,1,0,0,0,0,0,0,0,0,0,0,0,0,0,1,1
2.5500000000,253.6419616186,-318.3664732837,5.4061423170,-2.5571766316,-0.0114673034,-0.0199737752,-6.2548468428,-4.1375710809,0.0860030413,-0.0025061360,-0.0116249581,0.0000263936,5.9474670683,3.9567746282,0.0052738809,-0.0122144000,1.1959784564,-0.0255750007,1,0,0,0,0,0,0,0,0,0,0,0,0,0,1,1
2.5625000000,253.5642449230,-318.4178792524,5.4068239746,-2.5572079583,-0.0116126154,-0.0199734453,-6.1805020864,-4.0881138134,0.0860559896,-0.0026588160,0.0033247726,-0.0002932940,5.9460028324,3.9566260054,-0.1075965707,-0.0112889600,0.0246901650,0.0251566629,1,0,0,0,0,0,0,0,0,0,0,0,0,0,1,1
2.5750000000,253.4874575359,-318.4686668584,5.4076060821,-2.5572411935,-0.0115710558,-0.0199771115,-6.1061753781,-4.0386584394,0.0847147432,-0.0027999280,0.0036333997,0.0000211643,5.9456804049,3.9570821402,-0.1092486313,-0.0103724800,-0.0038279665,0.0000812437,1,0,0,0,0,0,0,0,0,0,0,0,0,0,1,1
2.5875000000,253.4115990760,-318.5188362504,5.4083814009,-2.5572761926,-0.0115256383,-0.0199768469,-6.0318526103,-3.9891974931,0.0833531905,-0.0029295840,0.0035855501,0.0000221799,5.9454501053,3.9574546691,-0.1082536230,-0.0092160000,-0.0038240408,0.0000312612,1,0,0,0,0,0,0,0,0,0,0,0,0,0,1,1
2.6000000000,253.3366695015,-318.5683873752,5.4091472733,-2.5573128124,-0.0114808189,-0.0199765697,-5.9575326422,-3.9397320114,0.0820040220,-0.0030447840,0.0035377496,0.0000225706,5.9452958437,3.9577119006,-0.1072719949,-0.0080544000,-0.0037544202,0.0001216883,1,0,0,0,0,0,0,0,0,0,0,0,0,0,1,1
2.6125000000,253.2626687904,-318.6173201921,5.4099037057,-2.5573508722,-0.0114365970,-0.0199762875,-5.8832145320,-3.8902634219,0.0806670705,-0.0031454640,0.0034908194,0.0000240917,5.9452148358,3.9578579465,-0.1063093090,-0.0069465600,-0.0037596858,0.0000544783,1,0,0,0,0,0,0,0,0,0,0,0,0,0,1,1
2.6250000000,253.1895969321,-318.6656346778,5.4106507396,-2.5573901905,-0.0113929618,-0.0199759864,-5.8088973734,-3.8407931012,0.0793421002,-0.0032322960,0.0034438233,0.0000247727,5.9452017459,3.9579009161,-0.1053587209,-0.0057171200,-0.0037351440,0.0000449460,1,0,0,0,0,0,0,0,0,0,0,0,0,0,1,1
2.6375000000,253.1174539265,-318.7133308251,5.4113883277,-2.5574305942,-0.0113499140,-0.0199756767,-5.7345803257,-3.7913223247,0.0780289598,-0.0033037600,0.0033971340,0.0000253346,5.9452595972,3.9578361996,-0.1044228401,-0.0044281600,-0.0037344840,0.0000886362,1,0,0,0,0,0,0,0,0,0,0,0,0,0,1,1
2.6500000000,253.0462397844,-318.7604086434,5.4121164697,-2.5574718912,-0.0113074498,-0.0199753601,-5.6602625115,-3.7418524241,0.0767274658,-0.0033591120,0.0033504529,0.0000264425,5.9453881210,3.9576642343,-0.1034995123,-0.0033427200,-0.0036551238,-0.0000433456,1,0,0,0,0,0,0,0,0,0,0,0,0,0,1,1
2.6625000000,252.9759545277,-318.8068681590,5.4128351851,-2.5575138801,-0.0112655692,-0.0199750295,-5.5859430576,-3.6923847252,0.0754374613,-0.0034008960,0.0033047639,0.0000259007,5.9455746485,3.9574039709,-0.1025953368,-0.0021766400,-0.0036645807,0.0000176988,1,0,0,0,0,0,0,0,0,0,0,0,0,0,1,1
2.6750000000,252.9065981871,-318.8527094116,5.4135444822,-2.5575563913,-0.0112242596,-0.0199747058,-5.5116212470,-3.6429203189,0.0741587080,-0.0034281040,0.0032589566,0.0000261219,5.9458202882,3.9570539142,-0.1017026069,-0.0008160000,-0.0036374199,0.0000071307,1,0,0,0,0,0,0,0,0,0,0,0,0,0,1,1
2.6875000000,252.8381708026,-318.8979324554,5.4142443294,-2.5575992426,-0.0111835226,-0.0199743792,-5.4372963500,-3.5934603142,0.0728910627,-0.0034383040,0.0032134889,0.0000262111,5.9461308555,3.9566051335,-0.1008243712,0.0001747200,0.1942057649,0.0686836729,1,0,0,0,0,0,0,0,0,0,0,0,0,0,1,1
2.7000000000,252.7706724242,-318.9425373593,5.4149347250,-2.5576422214,-0.0111433540,-0.0199740516,-5.3629675653,-3.5440059292,0.0716343446,-0.0034361200,0.0056410609,0.0008847570,5.9463395281,3.9559903354,-0.1158577210,0.0014009600,0.3372445803,-0.0676904187,1,0,0,0,0,0,0,0,0,0,0,0,0,0,1,1
2.7125000000,252.7041031088,-318.9865242035,5.4157845653,-2.5576851729,-0.0110728408,-0.0199629921,-5.2886361488,-3.4945592108,0.0701924192,-0.0034186080,0.0098566182,0.0000386267,5.9465064298,3.9552322627,-0.1415730391,0.0026227200,-0.0112047728,-0.0000285502,1,0,0,0,0,0,0,0,0,0,0,0,0,0,1,1
2.7250000000,252.6384628767,-319.0298931101,5.4169146519,-2.5577279055,-0.0109496330,-0.0199625093,-5.2143026141,-3.4451219238,0.0684337574,-0.0033858240,0.0097165585,0.0000382699,5.9469870525,3.9545726774,-0.1389348294,0.0035814400,-0.0111858900,-0.0000400566,1,0,0,0,0,0,0,0,0,0,0,0,0,0,1,1
2.7375000000,252.5737517267,-319.0726442321,5.4180287776,-2.5577702283,-0.0108281761,-0.0199620309,-5.1399630945,-3.3956928529,0.0667079169,-0.0033410560,0.0095767349,0.0000377691,5.9475025872,3.9538581306,-0.1363385528,0.0045337600,-0.0111671326,-0.0000514889,1,0,0,0,0,0,0,0,0,0,0,0,0,0,1,1
2.7500000000,252.5099697439,-319.1147776779,5.4191269392,-2.5578119915,-0.0107084669,-0.0199615588,-5.0656171609,-3.3462726739,0.0650143738,-0.0032843840,0.0094371457,0.0000371255,5.9480503440,3.9530927839,-0.1337811370,0.0056294400,-0.0112230768,-0.0001505563,1,0,0,0,0,0,0,0,0,0,0,0,0,0,1,1
2.7625000000,252.4471170185,-319.1562935635,5.4202091339,-2.5578530463,-0.0105905026,-0.0199610948,-4.9912644178,-3.2968620107,0.0633526426,-0.0032140160,0.0092968573,0.0000352436,5.9486341059,3.9522710393,-0.1312569307,0.0065036800,-0.0111435740,-0.0000901449,1,0,0,0,0,0,0,0,0,0,0,0,0,0,1,1
2.7750000000,252.3851936459,-319.1971920140,5.4212753306,-2.5578932215,-0.0104742918,-0.0199606542,-4.9169044234,-3.2474615554,0.0617223074,-0.0031327200,0.0091575626,0.0000341168,5.9492419815,3.9514107504,-0.1287761413,0.0072140800,-0.0111129256,-0.0000821424,1,0,0,0,0,0,0,0,0,0,0,0,0,0,1,1
2.7875000000,252.3241997250,-319.2374731604,5.4223255484,-2.5579323805,-0.0103598223,-0.0199602277,-4.8425368831,-3.1980717797,0.0601228266,-0.0030425440,0.0090186510,0.0000330900,5.9498654123,3.9505249550,-0.1263348738,0.0082060800,-0.0110933475,-0.0000940612,1,0,0,0,0,0,0,0,0,0,0,0,0,0,1,1
2.8000000000,252.2641353573,-319.2771371377,5.4233597894,-2.5579704123,-0.0102470892,-0.0199598141,-4.7681616077,-3.1486929940,0.0585537066,-0.0029399680,0.0088799842,0.0000319142,5.9505136491,3.9495997250,-0.1239322125,0.0090272000,-0.0111106149,-0.0000658215,1,0,0,0,0,0,0,0,0,0,0,0,0,0,1,1
2.8125000000,252.2050006477,-319.3161840872,5.4243780501,-2.5580071619,-0.0101360894,-0.0199594152,-4.6937782949,-3.0993256798,0.0570144651,-0.0028271280,0.0087411015,0.0000310915,5.9511777704,3.9486486151,-0.1215654675,0.0095680000,-0.0111202914,-0.0000538272,1,0,0,0,0,0,0,0,0,0,0,0,0,0,1,1
2.8250000000,252.1467957035,-319.3546141542,5.4253803146,-2.5580425010,-0.0100268256,-0.0199590266,-4.6193867521,-3.0499701508,0.0555046529,-0.0027075280,0.0086020979,0.0000304186,5.9518450754,3.9476909385,-0.1192352482,0.0103468800,-0.0110498446,-0.0001213447,1,0,0,0,0,0,0,0,0,0,0,0,0,0,1,1
2.8375000000,252.0895206325,-319.3924274850,5.4263665724,-2.5580763451,-0.0099192994,-0.0199586463,-4.5449869440,-3.0006264830,0.0540238133,-0.0025781920,0.0084639748,0.0000289018,5.9525230379,3.9467152486,-0.1169470430,0.0106912000,-0.0110431791,-0.0001254957,1,0,0,0,0,0,0,0,0,0,0,0,0,0,1,1
2.8500000000,252.0331755438,-319.4296242289,5.4273368391,-2.5581085725,-0.0098134997,-0.0199582850,-4.4705787429,-2.9512948922,0.0525714221,-0.0024445520,0.0083259351,0.0000273331,5.9531938783,3.9457486710,-0.1146962856,0.0114412800,-0.0110284038,-0.0001345173,1,0,0,0,0,0,0,0,0,0,0,0,0,0,1,1
2.8625000000,251.9777605454,-319.4662045336,5.4282911107,-2.5581391294,-0.0097094255,-0.0199579434,-4.3961622408,-2.9019752607,0.0511470113,-0.0023015360,0.0081880800,0.0000256516,5.9538714120,3.9447702460,-0.1124834645,0.0116883200,-0.2318171129,-0.0114820863,1,0,0,0,0,0,0,0,0,0,0,0,0,0,1,1
2.8750000000,251.9232757462,-319.5021685489,5.4292293836,-2.5581678986,-0.0096070745,-0.0199576227,-4.3217373594,-2.8526677276,0.0497501069,-0.0021554320,0.0052903661,-0.0001178744,5.9546495529,3.9438849101,-0.0960150855,0.0122272000,-0.2705427453,0.0112224722,1,0,0,0,0,0,0,0,0,0,0,0,0,0,1,1
2.8875000000,251.8697212527,-319.5375164217,5.4300827429,-2.5581948415,-0.0095409449,-0.0199590962,-4.2473028677,-2.8033711427,0.0485558231,-0.0020025920,0.0019085818,0.0000224065,5.9554356981,3.9430106948,-0.0778596590,0.0126054400,-0.0025071616,-0.0001431337,1,0,0,0,0,0,0,0,0,0,0,0,0,0,1,1
2.9000000000,251.8170972057,-319.5722482756,5.4308390082,-2.5582198739,-0.0095170877,-0.0199588161,-4.1728586734,-2.7540853631,0.0475847076,-0.0018450240,0.0018772423,0.0000206173,5.9560709393,3.9420576179,-0.0773639407,0.0128172800,-0.0025029496,-0.0001455680,1,0,0,0,0,0,0,0,0,0,0,0,0,0,1,1
2.9125000000,251.7654037474,-319.6063642297,5.4315819172,-2.5582429367,-0.0094936221,-0.0199585584,-4.0984066359,-2.7048113505,0.0466197536,-0.0016848080,0.0018459554,0.0000187977,5.9566899780,3.9411287937,-0.0768750989,0.0130105600,-0.0024991075,-0.0001477897,1,0,0,0,0,0,0,0,0,0,0,0,0,0,1,1
2.9250000000,251.7146409746,-319.6398644278,5.4323114662,-2.5582639968,-0.0094705477,-0.0199583234,-4.0239469591,-2.6555487991,0.0456608752,-0.0015221760,0.0018147166,0.0000169503,5.9572916842,3.9402259625,-0.0763948777,0.0131558400,-0.0024965226,-0.0001501040,1,0,0,0,0,0,0,0,0,0,0,0,0,0,1,1
2.9375000000,251.6648089813,-319.6727490096,5.4330276521,-2.5582830240,-0.0094478637,-0.0199581115,-3.9494798614,-2.6062973819,0.0447079647,-0.0013577280,0.0017835100,0.0000150740,5.9578739601,3.9393522742,-0.0759231630,0.0132889600,-0.0024598517,-0.0000787791,1,0,0,0,0,0,0,0,0,0,0,0,0,0,1,1
2.9500000000,251.6159078585,-319.7050181103,5.4337304714,-2.5582999956,-0.0094255699,-0.0199579231,-3.8750055866,-2.5570567328,0.0437609158,-0.0011916160,0.0017527619,0.0000140893,5.9584361175,3.9385087841,-0.0754619537,0.0133574400,-0.0024744790,-0.0001137885,1,0,0,0,0,0,0,0,0,0,0,0,0,0,1,1
2.9625000000,251.5679376939,-319.7366718602,5.4344199420,-2.5583148908,-0.0094036603,-0.0199577470,-3.8005243874,-2.5078264729,0.0428195977,-0.0010246480,0.0017218309,0.0000126669,5.9589757896,3.9376991111,-0.0750081277,0.0132832000,-0.0024947361,-0.0001531228,1,0,0,0,0,0,0,0,0,0,0,0,0,0,1,1
2.9750000000,251.5208985719,-319.7677103845,5.4350960482,-2.5583276989,-0.0093821374,-0.0199575886,-3.7260365451,-2.4586061785,0.0418839179,-0.0008586080,0.0016906467,0.0000107529,5.9594884843,3.9369301305,-0.0745614713,0.0133164800,-0.0024940832,-0.0001535114,1,0,0,0,0,0,0,0,0,0,0,0,0,0,1,1
2.9875000000,251.4747905726,-319.7981338021,5.4357587782,-2.5583384315,-0.0093610044,-0.0199574542,-3.6515423965,-2.4093953419,0.0409537865,-0.0006921520,0.0016594707,0.0000088340,5.9599775413,3.9361967478,-0.0741231835,0.0134508800,-0.0024914108,-0.0001550519,1,0,0,0,0,0,0,0,0,0,0,0,0,0,1,1
3.0000000000,251.4296137721,-319.8279422260,5.4364081294,-2.5583470834,-0.0093402610,-0.0199573438,-3.5770422374,-2.3601935178,0.0400290989,-0.0005240160,0.0016283280,0.0000068959,5.9604459518,3.9354944250,-0.0736934108,0.0130937600,-0.0025020548,-0.0001434739,1,0,0,0,0,0,0,0,0,0,0,0,0,0,1,1
3.0125000000,251.3853682437,-319.8571357648,5.4370440990,-2.5583536336,-0.0093199069,-0.0199572576,-3.5025363268,-2.3110003163,0.0391097487,-0.0003603440,0.0015970523,0.0000051024,5.9608791342,3.9348453065,-0.0732714101,0.0129523200,-0.0024626270,-0.0002323644,1,0,0,0,0,0,0,0,0,0,0,0,0,0,1,1
3.0250000000,251.3420540549,-319.8857145186,5.4376666847,-2.5583581379,-0.0092999437,-0.0199571938,-3.4280251023,-2.2618150765,0.0381956386,-0.0001984400,0.0015662695,0.0000021979,5.9612840551,3.9342388015,-0.0728598135,0.0127532800,-0.0024955251,-0.0001681673,1,0,0,0,0,0,0,0,0,0,0,0,0,0,1,1
3.0375000000,251.2996712689,-319.9136785807,5.4382759053,-2.5583606184,-0.0092803654,-0.0199571664,-3.3535089161,-2.2126372674,0.0372866391,-0.0000390240,0.0015350754,0.0000000958,5.9616595581,3.9336767321,-0.0724548122,0.0125708800,-0.0025100216,-0.0001428526,1,0,0,0,0,0,0,0,0,0,0,0,0,0,1,1
3.0500000000,251.2582199443,-319.9410280379,5.4388717422,-2.5583611062,-0.0092611769,-0.0199571652,-3.2789881343,-2.1634663358,0.0363826673,0.0001181120,0.0015037002,-0.0000016899,5.9620065246,3.9331577712,-0.0720574427,0.0121632000,-0.0025181660,-0.0001381983,1,0,0,0,0,0,0,0,0,0,0,0,0,0,1,1
3.0625000000,251.2177001352,-319.9677629698,5.4394541883,-2.5583596298,-0.0092423807,-0.0199571863,-3.2044631124,-2.1143017451,0.0354836276,0.0002701520,0.0014722231,-0.0000034174,5.9623194536,3.9326902233,-0.0716680960,0.0119072000,-0.0025232815,-0.0001352736,1,0,0,0,0,0,0,0,0,0,0,0,0,0,1,1
3.0750000000,251.1781118904,-319.9938834483,5.4400232418,-2.5583562529,-0.0092239779,-0.0199572290,-3.1299342726,-2.0651428573,0.0345894196,0.0004189920,0.0014406821,-0.0000051083,5.9626033051,3.9322665981,-0.0712869357,0.0115712000,-0.0025299932,-0.0001314352,1,0,0,0,0,0,0,0,0,0,0,0,0,0,1,1
3.0875000000,251.1394552542,-320.0193895385,5.4405789011,-2.5583510155,-0.0092059693,-0.0199572929,-3.0554019765,-2.0159891264,0.0336999409,0.0005636320,0.0014090572,-0.0000067512,5.9628566390,3.9318890682,-0.0709139198,0.0111609600,-0.0025381863,-0.0001267474,1,0,0,0,0,0,0,0,0,0,0,0,0,0,1,1
3.1000000000,251.1017302660,-320.0442812981,5.4411211649,-2.5583439701,-0.0091883561,-0.0199573772,-2.9808666028,-1.9668399800,0.0328150896,0.0007031440,0.0013773298,-0.0000083356,5.9630784909,3.9315591330,-0.0705490069,0.0108198400,-0.4880043295,-0.0369497534,1,0,0,0,0,0,0,0,0,0,0,0,0,0,1,1
3.1125000000,251.0649369604,-320.0685587777,5.4416500319,-2.5583351808,-0.0091711395,-0.0199574814,-2.9063285421,-1.9176948281,0.0319347643,0.0008383920,-0.0047227243,-0.0004702075,5.9634336876,3.9313796664,-0.0490604029,0.0105484800,-0.0778960588,0.0369602055,1,0,0,0,0,0,0,0,0,0,0,0,0,0,1,1
3.1250000000,251.0290753677,-320.0922220208,5.4419853899,-2.5583247009,-0.0092301736,-0.0199633590,-2.8317861768,-1.8685518280,0.0313162380,0.0009702480,-0.0056964250,-0.0000082049,5.9636175483,3.9311444449,-0.0466021632,0.0098336000,0.0123914997,-0.0000965454,1,0,0,0,0,0,0,0,0,0,0,0,0,0,1,1
3.1375000000,250.9941455623,-320.1152710328,5.4422793409,-2.5583125728,-0.0093013789,-0.0199634616,-2.7572416030,-1.8194116511,0.0307273529,0.0010931680,-0.0055415313,-0.0000094117,5.9637350549,3.9309430554,-0.0481314578,0.0094361600,0.0123834518,-0.0000927288,1,0,0,0,0,0,0,0,0,0,0,0,0,0,1,1
3.1500000000,250.9601475698,-320.1377058394,5.4425654417,-2.5582989082,-0.0093706480,-0.0199635792,-2.6826956349,-1.7702738764,0.0301195245,0.0012111200,-0.0053867381,-0.0000105708,5.9638258002,3.9307825872,-0.0496185115,0.0090265600,0.0123751644,-0.0000887966,1,0,0,0,0,0,0,0,0,0,0,0,0,0,1,1
3.1625000000,250.9270814023,-320.1595264662,5.4428436917,-2.5582837692,-0.0094379822,-0.0199637114,-2.6081486041,-1.7211379971,0.0294932807,0.0013239520,-0.0052320486,-0.0000116808,5.9638905011,3.9306619423,-0.0510637882,0.0084332800,0.0123632130,-0.0000831032,1,0,0,0,0,0,0,0,0,0,0,0,0,0,1,1
3.1750000000,250.8949470678,-320.1807329324,5.4431140907,-2.5582672198,-0.0095033828,-0.0199638574,-2.5336008329,-1.6720035201,0.0288491436,0.0014293680,-0.0050775084,-0.0000127196,5.9639263199,3.9305854607,-0.0524671549,0.0080288000,0.0123550327,-0.0000792194,1,0,0,0,0,0,0,0,0,0,0,0,0,0,1,1
3.1875000000,250.8637445699,-320.2013252505,5.4433766383,-2.5582493527,-0.0095668517,-0.0199640164,-2.4590526775,-1.6228699001,0.0281876369,0.0015297280,-0.0049230705,-0.0000137098,5.9639386142,3.9305450830,-0.0538288492,0.0074246400,0.0123428709,-0.0000734216,1,0,0,0,0,0,0,0,0,0,0,0,0,0,1,1
3.2000000000,250.8334739084,-320.2213034271,5.4436313345,-2.5582302311,-0.0096283901,-0.0199641877,-2.3845044293,-1.5737366908,0.0275092814,0.0016225360,-0.0047687846,-0.0000146276,5.9639243820,3.9305452986,-0.0551487295,0.0070137600,0.0123427951,-0.0000870973,1,0,0,0,0,0,0,0,0,0,0,0,0,0,1,1
3.2125000000,250.8041350793,-320.2406674627,5.4438781794,-2.5582099494,-0.0096879999,-0.0199643706,-2.3099564149,-1.5246033916,0.0268145996,0.0017102080,-0.0046144997,-0.0000157163,5.9638888517,3.9305782504,-0.0564272900,0.0063686400,0.0123560559,-0.0001370940,1,0,0,0,0,0,0,0,0,0,0,0,0,0,1,1
3.2250000000,250.7757280751,-320.2594173527,5.4441171770,-2.5581885718,-0.0097456811,-0.0199645670,-2.2354088974,-1.4754695981,0.0261041080,0.0017898160,-0.0044600490,-0.0000174300,5.9638287018,3.9306489718,-0.0576649531,0.0059750400,0.0123144831,-0.0000613131,1,0,0,0,0,0,0,0,0,0,0,0,0,0,1,1
3.2375000000,250.7482528847,-320.2775530867,5.4443483382,-2.5581661991,-0.0098014317,-0.0199647849,-2.1608621796,-1.4263348457,0.0253783180,0.0018645040,-0.0043061179,-0.0000181964,5.9637500224,3.9307482789,-0.0588599137,0.0051552000,0.0122956564,-0.0000483785,1,0,0,0,0,0,0,0,0,0,0,0,0,0,1,1
3.2500000000,250.7217094939,-320.2950746495,5.4445716483,-2.5581428928,-0.0098552582,-0.0199650124,-2.0863164900,-1.3771987816,0.0246377628,0.0019289440,-0.0041524222,-0.0000188011,5.9636464521,3.9308858224,-0.0600130537,0.0047904000,0.0122882858,-0.0000448767,1,0,0,0,0,0,0,0,0,0,0,0,0,0,1,1
3.2625000000,250.6960978849,-320.3119820203,5.4447871080,-2.5581187810,-0.0099071635,-0.0199652474,-2.0117721336,-1.3280609375,0.0238829649,0.0019888240,-0.0039988187,-0.0000193621,5.9635275493,3.9310470977,-0.0611248012,0.0041920000,0.0122762511,-0.0000391374,1,0,0,0,0,0,0,0,0,0,0,0,0,0,1,1
3.2750000000,250.6714180376,-320.3282751744,5.4449947179,-2.5580939207,-0.0099571487,-0.0199654894,-1.9372292991,-1.2789210209,0.0231144416,0.0020412240,-0.0038453655,-0.0000198513,5.9633905082,3.9312363947,-0.0621950551,0.0036012800,0.0122643760,-0.0000334740,1,0,0,0,0,0,0,0,0,0,0,0,0,0,1,1
3.2875000000,250.6476699288,-320.3439540829,5.4451944788,-2.5580684054,-0.0100052158,-0.0199657376,-1.8626882085,-1.2297786884,0.0223327114,0.0020862400,-0.0036920608,-0.0000202697,5.9632368966,3.9314513714,-0.0632238802,0.0031891200,0.0122560667,-0.0000295203,1,0,0,0,0,0,0,0,0,0,0,0,0,0,1,1
3.3000000000,250.6248535332,-320.3590187129,5.4453863915,-2.5580423274,-0.0100513666,-0.0199659909,-1.7881490647,-1.1806336261,0.0215382920,0.0021261040,-0.0035388600,-0.0000206387,5.9630708305,3.9316857464,-0.0642114157,0.0024083200,0.0122404006,-0.0000220379,1,0,0,0,0,0,0,0,0,0,0,0,0,0,1,1
3.3125000000,250.6029688233,-320.3734690282,5.4455704569,-2.5580157511,-0.0100956023,-0.0199662489,-1.7136120199,-1.1314855961,0.0207316994,0.0021562080,-0.0033858550,-0.0000209142,5.9628880987,3.9319459653,-0.0651575179,0.0018393600,0.0122289671,-0.0000165850,1,0,0,0,0,0,0,0,0,0,0,0,0,0,1,1
3.3250000000,250.5820157692,-320.3873049889,5.4457466760,-2.5579887985,-0.0101379255,-0.0199665103,-1.6390772765,-1.0823342845,0.0199134513,0.0021792000,-0.0032329929,-0.0000211215,5.9626935079,3.9322247400,-0.0660623513,0.0012070400,0.0122162706,-0.0000105277,1,0,0,0,0,0,0,0,0,0,0,0,0,0,1,1
3.3375000000,250.5619943393,-320.4005265521,5.4459150500,-2.5579615585,-0.0101783379,-0.0199667744,-1.5645449784,-1.0331794660,0.0190840634,0.0021942880,-0.0030802895,-0.0000212531,5.9624876404,3.9325211907,-0.0669259464,0.0004832000,0.0122017487,-0.0000035940,1,0,0,0,0,0,0,0,0,0,0,0,0,0,1,1
3.3500000000,250.5429045002,-320.4131336721,5.4460755800,-2.5579341299,-0.0102168415,-0.0199670400,-1.4900152617,-0.9840209270,0.0182440510,0.0022003280,-0.0029277677,-0.0000212980,5.9622709051,3.9328347070,-0.0677483172,-0.0002259200,0.0122068002,0.0000444719,1,0,0,0,0,0,0,0,0,0,0,0,0,0,1,1
3.3625000000,250.5247462168,-320.4251263006,5.4462282671,-2.5579066258,-0.0102534386,-0.0199673063,-1.4154882565,-0.9348584625,0.0173939292,0.0021975040,-0.0027751827,-0.0000207421,5.9620453003,3.9331622928,-0.0685299503,-0.0007590400,0.0121820718,0.0000195559,1,0,0,0,0,0,0,0,0,0,0,0,0,0,1,1
3.3750000000,250.5075194529,-320.4365043873,5.4463731218,-2.5578791570,-0.0102881284,-0.0199675655,-1.3409640684,-0.8856919050,0.0165342073,0.0021880160,-0.0026229068,-0.0000204977,5.9618144931,3.9334983845,-0.0692701949,-0.0014438400,0.0121637248,0.0000162316,1,0,0,0,0,0,0,0,0,0,0,0,0,0,1,1
3.3875000000,250.4912241713,-320.4472678802,5.4465101380,-2.5578518068,-0.0103209147,-0.0199678217,-1.2664427582,-0.8365211543,0.0156654023,0.0021699680,-0.0024708602,-0.0000202948,5.9615782298,3.9338433920,-0.0699693317,-0.0019564800,0.0121512611,0.0000164916,1,0,0,0,0,0,0,0,0,0,0,0,0,0,1,1
3.4000000000,250.4758603344,-320.4574167263,5.4466393146,-2.5578246822,-0.0103518005,-0.0199680754,-1.1919243888,-0.7873461069,0.0147880278,0.0021455120,-0.0023189694,-0.0000200887,5.9613398982,3.9341921983,-0.0706275025,-0.0023571200,0.0121432046,0.0000203244,1,0,0,0,0,0,0,0,0,0,0,0,0,0,1,1
3.4125000000,250.4614279041,-320.4669508718,5.4467606530,-2.5577978633,-0.0103807876,-0.0199683265,-1.1174089823,-0.7381667214,0.0139025957,0.0021160480,-0.0021671794,-0.0000198346,5.9611017669,3.9345413428,-0.0712448558,-0.0029555200,0.0121312049,0.0000260482,1,0,0,0,0,0,0,0,0,0,0,0,0,0,1,1
3.4250000000,250.4479268423,-320.4758702629,5.4468741545,-2.5577714127,-0.0104078774,-0.0199685745,-1.0428965329,-0.6889829981,0.0130096161,0.0020791040,-0.0020155393,-0.0000195090,5.9608631585,3.9348918964,-0.0718213718,-0.0032230400,0.0121258126,0.0000286053,1,0,0,0,0,0,0,0,0,0,0,0,0,0,1,1
3.4375000000,250.4353571111,-320.4841748455,5.4469798204,-2.5577454239,-0.0104330716,-0.0199688183,-0.9683870419,-0.6397949263,0.0121095993,0.0020388160,-0.0018639667,-0.0000191514,5.9606281819,3.9352376566,-0.0723572028,-0.0037856000,0.0121145334,0.0000339848,1,0,0,0,0,0,0,0,0,0,0,0,0,0,1,1
3.4500000000,250.4237186732,-320.4918645665,5.4470776521,-2.5577199387,-0.0104563712,-0.0199690577,-0.8938804621,-0.5906025692,0.0112030538,0.0019914960,-0.0017125350,-0.0000187266,5.9603953060,3.9355809060,-0.0728522598,-0.0039001600,0.0121122036,0.0000350758,1,0,0,0,0,0,0,0,0,0,0,0,0,0,1,1
3.4625000000,250.4130114916,-320.4989393729,5.4471676508,-2.5576950450,-0.0104777779,-0.0199692918,-0.8193767627,-0.5414059646,0.0102904891,0.0019427440,-0.0015611324,-0.0000182882,5.9601689719,3.9359149636,-0.0733067554,-0.0045446400,0.0120992936,0.0000412387,1,0,0,0,0,0,0,0,0,0,0,0,0,0,1,1
3.4750000000,250.4032355306,-320.5053992132,5.4472498177,-2.5576707607,-0.0104972920,-0.0199695204,-0.7448758610,-0.4922052287,0.0093724122,0.0018859360,-0.0014098913,-0.0000177727,5.9599462093,3.9362443431,-0.0737205319,-0.0046483200,0.0120971867,0.0000422240,1,0,0,0,0,0,0,0,0,0,0,0,0,0,1,1
3.4875000000,250.3943907549,-320.5112440368,5.4473241543,-2.5576471865,-0.0105149157,-0.0199697426,-0.6703777076,-0.4430004276,0.0084493319,0.0018278320,-0.0012586764,-0.0000172449,5.9597315758,3.9365621164,-0.0740937944,-0.0050035200,0.0120900605,0.0000456180,1,0,0,0,0,0,0,0,0,0,0,0,0,0,1,1
3.5000000000,250.3864771306,-320.5164737946,5.4473906616,-2.5576243386,-0.0105306491,-0.0199699581,-0.5958821998,-0.3937917074,0.0075217546,0.0017652880,-0.0011075507,-0.0000166747,5.9595241214,3.9368697789,-0.0744264807,-0.0052582400,0.0120849437,0.0000480483,1,0,0,0,0,0,0,0,0,0,0,0,0,0,1,1
3.5125000000,250.3794946251,-320.5210884394,5.4474493408,-2.5576022725,-0.0105444935,-0.0199701666,-0.5213892454,-0.3445791988,0.0065901874,0.0016995600,-0.0009564889,-0.0000160741,5.9593251367,3.9371653355,-0.0747186576,-0.0054028800,0.0120820297,0.0000494263,1,0,0,0,0,0,0,0,0,0,0,0,0,0,1,1
3.5250000000,250.3734432070,-320.5250879256,5.4475001930,-2.5575810280,-0.0105564496,-0.0199703675,-0.4468987363,-0.2953630559,0.0056551366,0.0016320240,-0.0008054635,-0.0000154562,5.9591356713,3.9374472514,-0.0749703424,-0.0057075200,0.0120759240,0.0000523345,1,0,0,0,0,0,0,0,0,0,0,0,0,0,1,1
3.5375000000,250.3683228467,-320.5284722099,5.4475432193,-2.5575606277,-0.0105665179,-0.0199705607,-0.3724105527,-0.2461434511,0.0047171083,0.0015606800,-0.0006545145,-0.0000148020,5.9589555760,3.9377157039,-0.0751815574,-0.0059334400,0.0120713924,0.0000544899,1,0,0,0,0,0,0,0,0,0,0,0,0,0,1,1
3.5500000000,250.3641335159,-320.5312412508,5.4475784206,-2.5575411192,-0.0105746993,-0.0199707457,-0.2979245748,-0.1969205560,0.0037766083,0.0014865120,-0.0005036221,-0.0000141209,5.9587858100,3.9379693053,-0.0753523109,-0.0060000000,0.0120700467,0.0000551202,1,0,0,0,0,0,0,0,0,0,0,0,0,0,1,1
3.5625000000,250.3608751881,-320.5333950095,5.4476057980,-2.5575225378,-0.0105809946,-0.0199709222,-0.2234406719,-0.1476945590,0.0028341423,0.0014115120,-0.0003527465,-0.0000134319,5.9586272289,3.9382067358,-0.0754826467,-0.0062508800,0.0120650273,0.0000575143,1,0,0,0,0,0,0,0,0,0,0,0,0,0,1,1
3.5750000000,250.3585478385,-320.5349334495,5.4476253523,-2.5575048939,-0.0105854039,-0.0199710901,-0.1489587037,-0.0984656630,0.0018902155,0.0013333760,-0.0002019336,-0.0000127130,5.9584797533,3.9384281173,-0.0755725601,-0.0063577600,0.0120628829,0.0000585309,1,0,0,0,0,0,0,0,0,0,0,0,0,0,1,1
3.5875000000,250.3571514443,-320.5358565366,5.4476370843,-2.5574882267,-0.0105879281,-0.0199712490,-0.0744785293,-0.0492340715,0.0009453331,0.0012539040,-0.0000511476,-0.0000119814,11.9165646866,7.8774514427,-0.1512532929,-0.1003123200,0.0040918077,0.0009585084,1,0,0,0,0,0,0,0,0,0,0,0,0,0,1,1
3.6000000000,250.3566859844,-320.5361642396,5.4476409948,-2.5574725529,-0.0105885675,-0.0199713988,-0.0000000000,-0.0000000000,0.0000000000,0.0000000000,0.0000000000,0.0000000000,0.0000000000,0.0000000000,0.0000000000,0.0000000000,0.0000000000,0.0000000000,1,0,0,0,0,0,0,0,0,0,0,0,0,0,1,1
3.6125000000,250.3566859844,-320.5361642396,5.4476409948,-2.5574725529,-0.0105885675,-0.0199713988,-0.0000000000,-0.0000000000,0.0000000000,0.0000000000,0.0000000000,0.0000000000,0.0000000000,0.0000000000,0.0000000000,0.0000000000,0.0000000000,0.0000000000,1,0,0,0,0,0,0,0,0,0,0,0,0,0,1,1
3.6250000000,250.3566859844,-320.5361642396,5.4476409948,-2.5574725529,-0.0105885675,-0.0199713988,-0.0000000000,-0.0000000000,0.0000000000,0.0000000000,0.0000000000,0.0000000000,0.0000000000,0.0000000000,0.0000000000,0.0000000000,0.0000000000,0.0000000000,1,0,0,0,0,0,0,0,0,0,0,0,0,0,1,1
3.6375000000,250.3566859844,-320.5361642396,5.4476409948,-2.5574725529,-0.0105885675,-0.0199713988,-0.0000000000,-0.0000000000,0.0000000000,0.0000000000,0.0000000000,0.0000000000,0.0000000000,0.0000000000,0.0000000000,0.0000000000,0.0000000000,0.0000000000,1,0,0,0,0,0,0,0,0,0,0,0,0,0,1,1
3.6500000000,250.3566859844,-320.5361642396,5.4476409948,-2.5574725529,-0.0105885675,-0.0199713988,-0.0000000000,-0.0000000000,0.0000000000,0.0000000000,0.0000000000,0.0000000000,0.0000000000,0.0000000000,0.0000000000,0.0000000000,0.0000000000,0.0000000000,1,0,0,0,0,0,0,0,0,0,0,0,0,0,1,1
3.6625000000,250.3566859844,-320.5361642396,5.4476409948,-2.5574725529,-0.0105885675,-0.0199713988,-0.0000000000,-0.0000000000,0.0000000000,0.0000000000,0.0000000000,0.0000000000,0.0000000000,0.0000000000,0.0000000000,0.0000000000,0.0000000000,0.0000000000,1,0,0,0,0,0,0,0,0,0,0,0,0,0,1,1
3.6750000000,250.3566859844,-320.5361642396,5.4476409948,-2.5574725529,-0.0105885675,-0.0199713988,-0.0000000000,-0.0000000000,0.0000000000,0.0000000000,0.0000000000,0.0000000000,0.0000000000,0.0000000000,0.0000000000,0.0000000000,0.0000000000,0.0000000000,1,0,0,0,0,0,0,0,0,0,0,0,0,0,1,1
3.6875000000,250.3566859844,-320.5361642396,5.4476409948,-2.5574725529,-0.0105885675,-0.0199713988,-0.0000000000,-0.0000000000,0.0000000000,0.0000000000,0.0000000000,0.0000000000,0.0000000000,0.0000000000,0.0000000000,0.0000000000,0.0000000000,0.0000000000,1,0,0,0,0,0,0,0,0,0,0,0,0,0,1,1
3.7000000000,250.3566859844,-320.5361642396,5.4476409948,-2.5574725529,-0.0105885675,-0.0199713988,-0.0000000000,-0.0000000000,0.0000000000,0.0000000000,0.0000000000,0.0000000000,0.0000000000,0.0000000000,0.0000000000,0.0000000000,0.0000000000,0.0000000000,1,0,0,0,0,0,0,0,0,0,0,0,0,0,1,1
3.7125000000,250.3566859844,-320.5361642396,5.4476409948,-2.5574725529,-0.0105885675,-0.0199713988,-0.0000000000,-0.0000000000,0.0000000000,0.0000000000,0.0000000000,0.0000000000,0.0000000000,0.0000000000,0.0000000000,0.0000000000,0.0000000000,0.0000000000,1,0,0,0,0,0,0,0,0,0,0,0,0,0,1,1
3.7250000000,250.3566859844,-320.5361642396,5.4476409948,-2.5574725529,-0.0105885675,-0.0199713988,-0.0000000000,-0.0000000000,0.0000000000,0.0000000000,0.0000000000,0.0000000000,0.0000000000,0.0000000000,0.0000000000,0.0000000000,0.0000000000,0.0000000000,1,0,0,0,0,0,0,0,0,0,0,0,0,0,1,1
3.7375000000,250.3566859844,-320.5361642396,5.4476409948,-2.5574725529,-0.0105885675,-0.0199713988,-0.0000000000,-0.0000000000,0.0000000000,0.0000000000,0.0000000000,0.0000000000,0.0000000000,0.0000000000,0.0000000000,0.0000000000,0.0000000000,0.0000000000,1,0,0,0,0,0,0,0,0,0,0,0,0,0,1,1
3.7500000000,250.3566859844,-320.5361642396,5.4476409948,-2.5574725529,-0.0105885675,-0.0199713988,-0.0000000000,-0.0000000000,0.0000000000,0.0000000000,0.0000000000,0.0000000000,0.0000000000,0.0000000000,0.0000000000,0.0000000000,0.0000000000,0.0000000000,1,0,0,0,0,0,0,0,0,0,0,0,0,0,1,1
3.7625000000,250.3566859844,-320.5361642396,5.4476409948,-2.5574725529,-0.0105885675,-0.0199713988,-0.0000000000,-0.0000000000,0.0000000000,0.0000000000,0.0000000000,0.0000000000,0.0000000000,0.0000000000,0.0000000000,0.0000000000,0.0000000000,0.0000000000,1,0,0,0,0,0,0,0,0,0,0,0,0,0,1,1
3.7750000000,250.3566859844,-320.5361642396,5.4476409948,-2.5574725529,-0.0105885675,-0.0199713988,-0.0000000000,-0.0000000000,0.0000000000,0.0000000000,0.0000000000,0.0000000000,0.0000000000,0.0000000000,0.0000000000,0.0000000000,0.0000000000,0.0000000000,1,0,0,0,0,0,0,0,0,0,0,0,0,0,1,1
3.7875000000,250.3566859844,-320.5361642396,5.4476409948,-2.5574725529,-0.0105885675,-0.0199713988,-0.0000000000,-0.0000000000,0.0000000000,0.0000000000,0.0000000000,0.0000000000,0.0000000000,0.0000000000,0.0000000000,0.0000000000,0.0000000000,0.0000000000,1,0,0,0,0,0,0,0,0,0,0,0,0,0,1,1
3.8000000000,250.3566859844,-320.5361642396,5.4476409948,-2.5574725529,-0.0105885675,-0.0199713988,-0.0000000000,-0.0000000000,0.0000000000,0.0000000000,0.0000000000,0.0000000000,0.0000000000,0.0000000000,0.0000000000,0.0000000000,0.0000000000,0.0000000000,1,0,0,0,0,0,0,0,0,0,0,0,0,0,1,1
3.8125000000,250.3566859844,-320.5361642396,5.4476409948,-2.5574725529,-0.0105885675,-0.0199713988,-0.0000000000,-0.0000000000,0.0000000000,0.0000000000,0.0000000000,0.0000000000,0.0000000000,0.0000000000,0.0000000000,0.0000000000,0.0000000000,0.0000000000,1,0,0,0,0,0,0,0,0,0,0,0,0,0,1,1
3.8250000000,250.3566859844,-320.5361642396,5.4476409948,-2.5574725529,-0.0105885675,-0.0199713988,-0.0000000000,-0.0000000000,0.0000000000,0.0000000000,0.0000000000,0.0000000000,0.0000000000,0.0000000000,0.0000000000,0.0000000000,0.0000000000,0.0000000000,1,0,0,0,0,0,0,0,0,0,0,0,0,0,1,1
3.8375000000,250.3566859844,-320.5361642396,5.4476409948,-2.5574725529,-0.0105885675,-0.0199713988,-0.0000000000,-0.0000000000,0.0000000000,0.0000000000,0.0000000000,0.0000000000,0.0000000000,0.0000000000,0.0000000000,0.0000000000,0.0000000000,0.0000000000,1,0,0,0,0,0,0,0,0,0,0,0,0,0,1,1
3.8500000000,250.3566859844,-320.5361642396,5.4476409948,-2.5574725529,-0.0105885675,-0.0199713988,-0.0000000000,-0.0000000000,0.0000000000,0.0000000000,0.0000000000,0.0000000000,0.0000000000,0.0000000000,0.0000000000,0.0000000000,0.0000000000,0.0000000000,1,0,0,0,0,0,0,0,0,0,0,0,0,0,1,1
3.8625000000,250.3566859844,-320.5361642396,5.4476409948,-2.5574725529,-0.0105885675,-0.0199713988,-0.0000000000,-0.0000000000,0.0000000000,0.0000000000,0.0000000000,0.0000000000,0.0000000000,0.0000000000,0.0000000000,0.0000000000,0.0000000000,0.0000000000,1,0,0,0,0,0,0,0,0,0,0,0,0,0,1,1
3.8750000000,250.3566859844,-320.5361642396,5.4476409948,-2.5574725529,-0.0105885675,-0.0199713988,-0.0000000000,-0.0000000000,0.0000000000,0.0000000000,0.0000000000,0.0000000000,0.0000000000,0.0000000000,0.0000000000,0.0000000000,0.0000000000,0.0000000000,1,0,0,0,0,0,0,0,0,0,0,0,0,0,1,1
3.8875000000,250.3566859844,-320.5361642396,5.4476409948,-2.5574725529,-0.0105885675,-0.0199713988,-0.0000000000,-0.0000000000,0.0000000000,0.0000000000,0.0000000000,0.0000000000,0.0000000000,0.0000000000,0.0000000000,0.0000000000,0.0000000000,0.0000000000,1,0,0,0,0,0,0,0,0,0,0,0,0,0,1,1
3.9000000000,250.3566859844,-320.5361642396,5.4476409948,-2.5574725529,-0.0105885675,-0.0199713988,-0.0000000000,-0.0000000000,0.0000000000,0.0000000000,0.0000000000,0.0000000000,0.0000000000,0.0000000000,0.0000000000,0.0000000000,0.0000000000,0.0000000000,1,0,0,0,0,0,0,0,0,0,0,0,0,0,1,1
3.9125000000,250.3566859844,-320.5361642396,5.4476409948,-2.5574725529,-0.0105885675,-0.0199713988,-0.0000000000,-0.0000000000,0.0000000000,0.0000000000,0.0000000000,0.0000000000,0.0000000000,0.0000000000,0.0000000000,0.0000000000,0.0000000000,0.0000000000,1,0,0,0,0,0,0,0,0,0,0,0,0,0,1,1
3.9250000000,250.3566859844,-320.5361642396,5.4476409948,-2.5574725529,-0.0105885675,-0.0199713988,-0.0000000000,-0.0000000000,0.0000000000,0.0000000000,0.0000000000,0.0000000000,0.0000000000,0.0000000000,0.0000000000,0.0000000000,0.0000000000,0.0000000000,1,0,0,0,0,0,0,0,0,0,0,0,0,0,1,1
3.9375000000,250.3566859844,-320.5361642396,5.4476409948,-2.5574725529,-0.0105885675,-0.0199713988,-0.0000000000,-0.0000000000,0.0000000000,0.0000000000,0.0000000000,0.0000000000,0.0000000000,0.0000000000,0.0000000000,0.0000000000,0.0000000000,0.0000000000,1,0,0,0,0,0,0,0,0,0,0,0,0,0,1,1
3.9500000000,250.3566859844,-320.5361642396,5.4476409948,-2.5574725529,-0.0105885675,-0.0199713988,-0.0000000000,-0.0000000000,0.0000000000,0.0000000000,0.0000000000,0.0000000000,0.0000000000,0.0000000000,0.0000000000,0.0000000000,0.0000000000,0.0000000000,1,0,0,0,0,0,0,0,0,0,0,0,0,0,1,1
3.9625000000,250.3566859844,-320.5361642396,5.4476409948,-2.5574725529,-0.0105885675,-0.0199713988,-0.0000000000,-0.0000000000,0.0000000000,0.0000000000,0.0000000000,0.0000000000,0.0000000000,0.0000000000,0.0000000000,0.0000000000,0.0000000000,0.0000000000,1,0,0,0,0,0,0,0,0,0,0,0,0,0,1,1
3.9750000000,250.3566859844,-320.5361642396,5.4476409948,-2.5574725529,-0.0105885675,-0.0199713988,-0.0000000000,-0.0000000000,0.0000000000,0.0000000000,0.0000000000,0.0000000000,0.0000000000,0.0000000000,0.0000000000,0.0000000000,0.0000000000,0.0000000000,1,0,0,0,0,0,0,0,0,0,0,0,0,0,1,1
3.9875000000,250.3566859844,-320.5361642396,5.4476409948,-2.5574725529,-0.0105885675,-0.0199713988,-0.0000000000,-0.0000000000,0.0000000000,0.0000000000,0.0000000000,0.0000000000,0.0000000000,0.0000000000,0.0000000000,0.0000000000,0.0000000000,0.0000000000,1,0,0,0,0,0,0,0,0,0,0,0,0,0,1,1
4.0000000000,250.3566859844,-320.5361642396,5.4476409948,-2.5574725529,-0.0105885675,-0.0199713988,-0.0000000000,-0.0000000000,0.0000000000,0.0000000000,0.0000000000,0.0000000000,0.0000000000,0.0000000000,0.0000000000,0.0000000000,0.0000000000,0.0000000000,1,0,0,0,0,0,0,0,0,0,0,0,0,0,1,1
4.0125000000,250.3566859844,-320.5361642396,5.4476409948,-2.5574725529,-0.0105885675,-0.0199713988,-0.0000000000,-0.0000000000,0.0000000000,0.0000000000,0.0000000000,0.0000000000,0.0000000000,0.0000000000,0.0000000000,0.0000000000,0.0000000000,0.0000000000,1,0,0,0,0,0,0,0,0,0,0,0,0,0,1,1
4.0250000000,250.3566859844,-320.5361642396,5.4476409948,-2.5574725529,-0.0105885675,-0.0199713988,-0.0000000000,-0.0000000000,0.0000000000,0.0000000000,0.0000000000,0.0000000000,0.0000000000,0.0000000000,0.0000000000,0.0000000000,0.0000000000,0.0000000000,1,0,0,0,0,0,0,0,0,0,0,0,0,0,1,1
4.0375000000,250.3566859844,-320.5361642396,5.4476409948,-2.5574725529,-0.0105885675,-0.0199713988,-0.0000000000,-0.0000000000,0.0000000000,0.0000000000,0.0000000000,0.0000000000,0.0000000000,0.0000000000,0.0000000000,0.0000000000,0.0000000000,0.0000000000,1,0,0,0,0,0,0,0,0,0,0,0,0,0,1,1
4.0500000000,250.3566859844,-320.5361642396,5.4476409948,-2.5574725529,-0.0105885675,-0.0199713988,-0.0000000000,-0.0000000000,0.0000000000,0.0000000000,0.0000000000,0.0000000000,0.0000000000,0.0000000000,0.0000000000,0.0000000000,0.0000000000,0.0000000000,1,0,0,0,0,0,0,0,0,0,0,0,0,0,1,1
4.0625000000,250.3566859844,-320.5361642396,5.4476409948,-2.5574725529,-0.0105885675,-0.0199713988,-0.0000000000,-0.0000000000,0.0000000000,0.0000000000,0.0000000000,0.0000000000,0.0000000000,0.0000000000,0.0000000000,0.0000000000,0.0000000000,0.0000000000,1,0,0,0,0,0,0,0,0,0,0,0,0,0,1,1
4.0750000000,250.3566859844,-320.5361642396,5.4476409948,-2.5574725529,-0.0105885675,-0.0199713988,-0.0000000000,-0.0000000000,0.0000000000,0.0000000000,0.0000000000,0.0000000000,0.0000000000,0.0000000000,0.0000000000,0.0000000000,0.0000000000,0.0000000000,1,0,0,0,0,0,0,0,0,0,0,0,0,0,1,1
4.0875000000,250.3566859844,-320.5361642396,5.4476409948,-2.5574725529,-0.0105885675,-0.0199713988,-0.0000000000,-0.0000000000,0.0000000000,0.0000000000,0.0000000000,0.0000000000,0.0000000000,0.0000000000,0.0000000000,0.0000000000,0.0000000000,0.0000000000,1,0,0,0,0,0,0,0,0,0,0,0,0,0,1,1
4.1000000000,250.3566859844,-320.5361642396,5.4476409948,-2.5574725529,-0.0105885675,-0.0199713988,-0.0000000000,-0.0000000000,0.0000000000,0.0000000000,0.0000000000,0.0000000000,0.0000000000,0.0000000000,0.0000000000,0.0000000000,0.0000000000,0.0000000000,1,0,0,0,0,0,0,0,0,0,0,0,0,0,1,1
4.1125000000,250.3566859844,-320.5361642396,5.4476409948,-2.5574725529,-0.0105885675,-0.0199713988,-0.0000000000,-0.0000000000,0.0000000000,0.0000000000,0.0000000000,0.0000000000,0.0000000000,0.0000000000,0.0000000000,0.0000000000,0.0000000000,0.0000000000,1,0,0,0,0,0,0,0,0,0,0,0,0,0,1,1
4.1250000000,250.3566859844,-320.5361642396,5.4476409948,-2.5574725529,-0.0105885675,-0.0199713988,-0.0000000000,-0.0000000000,0.0000000000,0.0000000000,0.0000000000,0.0000000000,0.0000000000,0.0000000000,0.0000000000,0.0000000000,0.0000000000,0.0000000000,1,0,0,0,0,0,0,0,0,0,0,0,0,0,1,1
4.1375000000,250.3566859844,-320.5361642396,5.4476409948,-2.5574725529,-0.0105885675,-0.0199713988,-0.0000000000,-0.0000000000,0.0000000000,0.0000000000,0.0000000000,0.0000000000,0.0000000000,0.0000000000,0.0000000000,0.0000000000,0.0000000000,0.0000000000,1,0,0,0,0,0,0,0,0,0,0,0,0,0,1,1
4.1500000000,250.3566859844,-320.5361642396,5.4476409948,-2.5574725529,-0.0105885675,-0.0199713988,-0.0000000000,-0.0000000000,0.0000000000,0.0000000000,0.0000000000,0.0000000000,0.0000000000,0.0000000000,0.0000000000,0.0000000000,0.0000000000,0.0000000000,1,0,0,0,0,0,0,0,0,0,0,0,0,0,1,1
4.1625000000,250.3566859844,-320.5361642396,5.4476409948,-2.5574725529,-0.0105885675,-0.0199713988,-0.0000000000,-0.0000000000,0.0000000000,0.0000000000,0.0000000000,0.0000000000,0.0000000000,0.0000000000,0.0000000000,0.0000000000,0.0000000000,0.0000000000,1,0,0,0,0,0,0,0,0,0,0,0,0,0,1,1
4.1750000000,250.3566859844,-320.5361642396,5.4476409948,-2.5574725529,-0.0105885675,-0.0199713988,-0.0000000000,-0.0000000000,0.0000000000,0.0000000000,0.0000000000,0.0000000000,0.0000000000,0.0000000000,0.0000000000,0.0000000000,0.0000000000,0.0000000000,1,0,0,0,0,0,0,0,0,0,0,0,0,0,1,1
4.1875000000,250.3566859844,-320.5361642396,5.4476409948,-2.5574725529,-0.0105885675,-0.0199713988,-0.0000000000,-0.0000000000,0.0000000000,0.0000000000,0.0000000000,0.0000000000,0.0000000000,0.0000000000,0.0000000000,0.0000000000,0.0000000000,0.0000000000,1,0,0,0,0,0,0,0,0,0,0,0,0,0,1,1
4.2000000000,250.3566859844,-320.5361642396,5.4476409948,-2.5574725529,-0.0105885675,-0.0199713988,-0.0000000000,-0.0000000000,0.0000000000,0.0000000000,0.0000000000,0.0000000000,0.0000000000,0.0000000000,0.0000000000,0.0000000000,0.0000000000,0.0000000000,1,0,0,0,0,0,0,0,0,0,0,0,0,0,1,1
4.2125000000,250.3566859844,-320.5361642396,5.4476409948,-2.5574725529,-0.0105885675,-0.0199713988,-0.0000000000,-0.0000000000,0.0000000000,0.0000000000,0.0000000000,0.0000000000,0.0000000000,0.0000000000,0.0000000000,0.0000000000,0.0000000000,0.0000000000,1,0,0,0,0,0,0,0,0,0,0,0,0,0,1,1
4.2250000000,250.3566859844,-320.5361642396,5.4476409948,-2.5574725529,-0.0105885675,-0.0199713988,-0.0000000000,-0.0000000000,0.0000000000,0.0000000000,0.0000000000,0.0000000000,0.0000000000,0.0000000000,0.0000000000,0.0000000000,0.0000000000,0.0000000000,1,0,0,0,0,0,0,0,0,0,0,0,0,0,1,1
4.2375000000,250.3566859844,-320.5361642396,5.4476409948,-2.5574725529,-0.0105885675,-0.0199713988,-0.0000000000,-0.0000000000,0.0000000000,0.0000000000,0.0000000000,0.0000000000,0.0000000000,0.0000000000,0.0000000000,0.0000000000,0.0000000000,0.0000000000,1,0,0,0,0,0,0,0,0,0,0,0,0,0,1,1
4.2500000000,250.3566859844,-320.5361642396,5.4476409948,-2.5574725529,-0.0105885675,-0.0199713988,-0.0000000000,-0.0000000000,0.0000000000,0.0000000000,0.0000000000,0.0000000000,0.0000000000,0.0000000000,0.0000000000,0.0000000000,0.0000000000,0.0000000000,1,0,0,0,0,0,0,0,0,0,0,0,0,0,1,1
4.2625000000,250.3566859844,-320.5361642396,5.4476409948,-2.5574725529,-0.0105885675,-0.0199713988,-0.0000000000,-0.0000000000,0.0000000000,0.0000000000,0.0000000000,0.0000000000,0.0000000000,0.0000000000,0.0000000000,0.0000000000,0.0000000000,0.0000000000,1,0,0,0,0,0,0,0,0,0,0,0,0,0,1,1
4.2750000000,250.3566859844,-320.5361642396,5.4476409948,-2.5574725529,-0.0105885675,-0.0199713988,-0.0000000000,-0.0000000000,0.0000000000,0.0000000000,0.0000000000,0.0000000000,0.0000000000,0.0000000000,0.0000000000,0.0000000000,0.0000000000,0.0000000000,1,0,0,0,0,0,0,0,0,0,0,0,0,0,1,1
4.2875000000,250.3566859844,-320.5361642396,5.4476409948,-2.5574725529,-0.0105885675,-0.0199713988,-0.0000000000,-0.0000000000,0.0000000000,0.0000000000,0.0000000000,0.0000000000,0.0000000000,0.0000000000,0.0000000000,0.0000000000,0.0000000000,0.0000000000,1,0,0,0,0,0,0,0,0,0,0,0,0,0,1,1
4.3000000000,250.3566859844,-320.5361642396,5.4476409948,-2.5574725529,-0.0105885675,-0.0199713988,-0.0000000000,-0.0000000000,0.0000000000,0.0000000000,0.0000000000,0.0000000000,0.0000000000,0.0000000000,0.0000000000,0.0000000000,0.0000000000,0.0000000000,1,0,0,0,0,0,0,0,0,0,0,0,0,0,1,1
4.3125000000,250.3566859844,-320.5361642396,5.4476409948,-2.5574725529,-0.0105885675,-0.0199713988,-0.0000000000,-0.0000000000,0.0000000000,0.0000000000,0.0000000000,0.0000000000,0.0000000000,0.0000000000,0.0000000000,0.0000000000,0.0000000000,0.0000000000,1,0,0,0,0,0,0,0,0,0,0,0,0,0,1,1
4.3250000000,250.3566859844,-320.5361642396,5.4476409948,-2.5574725529,-0.0105885675,-0.0199713988,-0.0000000000,-0.0000000000,0.0000000000,0.0000000000,0.0000000000,0.0000000000,0.0000000000,0.0000000000,0.0000000000,0.0000000000,0.0000000000,0.0000000000,1,0,0,0,0,0,0,0,0,0,0,0,0,0,1,1
4.3375000000,250.3566859844,-320.5361642396,5.4476409948,-2.5574725529,-0.0105885675,-0.0199713988,-0.0000000000,-0.0000000000,0.0000000000,0.0000000000,0.0000000000,0.0000000000,0.0000000000,0.0000000000,0.0000000000,0.0000000000,0.0000000000,0.0000000000,1,0,0,0,0,0,0,0,0,0,0,0,0,0,1,1
4.3500000000,250.3566859844,-320.5361642396,5.4476409948,-2.5574725529,-0.0105885675,-0.0199713988,-0.0000000000,-0.0000000000,0.0000000000,0.0000000000,0.0000000000,0.0000000000,0.0000000000,0.0000000000,0.0000000000,0.0000000000,0.0000000000,0.0000000000,1,0,0,0,0,0,0,0,0,0,0,0,0,0,1,1
4.3625000000,250.3566859844,-320.5361642396,5.4476409948,-2.5574725529,-0.0105885675,-0.0199713988,-0.0000000000,-0.0000000000,0.0000000000,0.0000000000,0.0000000000,0.0000000000,0.0000000000,0.0000000000,0.0000000000,0.0000000000,0.0000000000,0.0000000000,1,0,0,0,0,0,0,0,0,0,0,0,0,0,1,1
4.3750000000,250.3566859844,-320.5361642396,5.4476409948,-2.5574725529,-0.0105885675,-0.0199713988,-0.0000000000,-0.0000000000,0.0000000000,0.0000000000,0.0000000000,0.0000000000,0.0000000000,0.0000000000,0.0000000000,0.0000000000,0.0000000000,0.0000000000,1,0,0,0,0,0,0,0,0,0,0,0,0,0,1,1
4.3875000000,250.3566859844,-320.5361642396,5.4476409948,-2.5574725529,-0.0105885675,-0.0199713988,-0.0000000000,-0.0000000000,0.0000000000,0.0000000000,0.0000000000,0.0000000000,0.0000000000,0.0000000000,0.0000000000,0.0000000000,0.0000000000,0.0000000000,1,0,0,0,0,0,0,0,0,0,0,0,0,0,1,1
4.4000000000,250.3566859844,-320.5361642396,5.4476409948,-2.5574725529,-0.0105885675,-0.0199713988,-0.0000000000,-0.0000000000,0.0000000000,0.0000000000,0.0000000000,0.0000000000,0.0000000000,0.0000000000,0.0000000000,0.0000000000,0.0000000000,0.0000000000,1,0,0,0,0,0,0,0,0,0,0,0,0,0,1,1
4.4125000000,250.3566859844,-320.5361642396,5.4476409948,-2.5574725529,-0.0105885675,-0.0199713988,-0.0000000000,-0.0000000000,0.0000000000,0.0000000000,0.0000000000,0.0000000000,0.0000000000,0.0000000000,0.0000000000,0.0000000000,0.0000000000,0.0000000000,1,0,0,0,0,0,0,0,0,0,0,0,0,0,1,1
4.4250000000,250.3566859844,-320.5361642396,5.4476409948,-2.5574725529,-0.0105885675,-0.0199713988,-0.0000000000,-0.0000000000,0.0000000000,0.0000000000,0.0000000000,0.0000000000,0.0000000000,0.0000000000,0.0000000000,0.0000000000,0.0000000000,0.0000000000,1,0,0,0,0,0,0,0,0,0,0,0,0,0,1,1
4.4375000000,250.3566859844,-320.5361642396,5.4476409948,-2.5574725529,-0.0105885675,-0.0199713988,-0.0000000000,-0.0000000000,0.0000000000,0.0000000000,0.0000000000,0.0000000000,0.0000000000,0.0000000000,0.0000000000,0.0000000000,0.0000000000,0.0000000000,1,0,0,0,0,0,0,0,0,0,0,0,0,0,1,1
4.4500000000,250.3566859844,-320.5361642396,5.4476409948,-2.5574725529,-0.0105885675,-0.0199713988,-0.0000000000,-0.0000000000,0.0000000000,0.0000000000,0.0000000000,0.0000000000,0.0000000000,0.0000000000,0.0000000000,0.0000000000,0.0000000000,0.0000000000,1,0,0,0,0,0,0,0,0,0,0,0,0,0,1,1
4.4625000000,250.3566859844,-320.5361642396,5.4476409948,-2.5574725529,-0.0105885675,-0.0199713988,-0.0000000000,-0.0000000000,0.0000000000,0.0000000000,0.0000000000,0.0000000000,0.0000000000,0.0000000000,0.0000000000,0.0000000000,0.0000000000,0.0000000000,1,0,0,0,0,0,0,0,0,0,0,0,0,0,1,1
4.4750000000,250.3566859844,-320.5361642396,5.4476409948,-2.5574725529,-0.0105885675,-0.0199713988,-0.0000000000,-0.0000000000,0.0000000000,0.0000000000,0.0000000000,0.0000000000,0.0000000000,0.0000000000,0.0000000000,0.0000000000,0.0000000000,0.0000000000,1,0,0,0,0,0,0,0,0,0,0,0,0,0,1,1
4.4875000000,250.3566859844,-320.5361642396,5.4476409948,-2.5574725529,-0.0105885675,-0.0199713988,-0.0000000000,-0.0000000000,0.0000000000,0.0000000000,0.0000000000,0.0000000000,0.0000000000,0.0000000000,0.0000000000,0.0000000000,0.0000000000,0.0000000000,1,0,0,0,0,0,0,0,0,0,0,0,0,0,1,1
4.5000000000,250.3566859844,-320.5361642396,5.4476409948,-2.5574725529,-0.0105885675,-0.0199713988,-0.0000000000,-0.0000000000,0.0000000000,0.0000000000,0.0000000000,0.0000000000,0.0000000000,0.0000000000,0.0000000000,0.0000000000,0.0000000000,0.0000000000,1,0,0,0,0,0,0,0,0,0,0,0,0,0,1,1
4.5125000000,250.3566859844,-320.5361642396,5.4476409948,-2.5574725529,-0.0105885675,-0.0199713988,-0.0000000000,-0.0000000000,0.0000000000,0.0000000000,0.0000000000,0.0000000000,0.0000000000,0.0000000000,0.0000000000,0.0000000000,0.0000000000,0.0000000000,1,0,0,0,0,0,0,0,0,0,0,0,0,0,1,1
4.5250000000,250.3566859844,-320.5361642396,5.4476409948,-2.5574725529,-0.0105885675,-0.0199713988,-0.0000000000,-0.0000000000,0.0000000000,0.0000000000,0.0000000000,0.0000000000,0.0000000000,0.0000000000,0.0000000000,0.0000000000,0.0000000000,0.0000000000,1,0,0,0,0,0,0,0,0,0,0,0,0,0,1,1
4.5375000000,250.3566859844,-320.5361642396,5.4476409948,-2.5574725529,-0.0105885675,-0.0199713988,-0.0000000000,-0.0000000000,0.0000000000,0.0000000000,0.0000000000,0.0000000000,0.0000000000,0.0000000000,0.0000000000,0.0000000000,0.0000000000,0.0000000000,1,0,0,0,0,0,0,0,0,0,0,0,0,0,1,1
4.5500000000,250.3566859844,-320.5361642396,5.4476409948,-2.5574725529,-0.0105885675,-0.0199713988,-0.0000000000,-0.0000000000,0.0000000000,0.0000000000,0.0000000000,0.0000000000,0.0000000000,0.0000000000,0.0000000000,0.0000000000,0.0000000000,0.0000000000,1,0,0,0,0,0,0,0,0,0,0,0,0,0,1,1
4.5625000000,250.3566859844,-320.5361642396,5.4476409948,-2.5574725529,-0.0105885675,-0.0199713988,-0.0000000000,-0.0000000000,0.0000000000,0.0000000000,0.0000000000,0.0000000000,0.0000000000,0.0000000000,0.0000000000,0.0000000000,0.0000000000,0.0000000000,1,0,0,0,0,0,0,0,0,0,0,0,0,0,1,1
4.5750000000,250.3566859844,-320.5361642396,5.4476409948,-2.5574725529,-0.0105885675,-0.0199713988,-0.0000000000,-0.0000000000,0.0000000000,0.0000000000,0.0000000000,0.0000000000,0.0000000000,0.0000000000,0.0000000000,0.0000000000,0.0000000000,0.0000000000,1,0,0,0,0,0,0,0,0,0,0,0,0,0,1,1
4.5875000000,250.3566859844,-320.5361642396,5.4476409948,-2.5574725529,-0.0105885675,-0.0199713988,-0.0000000000,-0.0000000000,0.0000000000,0.0000000000,0.0000000000,0.0000000000,0.0000000000,0.0000000000,0.0000000000,0.0000000000,0.0000000000,0.0000000000,1,0,0,0,0,0,0,0,0,0,0,0,0,0,1,1
4.6000000000,250.3566859844,-320.5361642396,5.4476409948,-2.5574725529,-0.0105885675,-0.0199713988,-0.0000000000,-0.0000000000,0.0000000000,0.0000000000,0.0000000000,0.0000000000,0.0000000000,0.0000000000,0.0000000000,0.0000000000,0.0000000000,0.0000000000,1,0,0,0,0,0,0,0,0,0,0,0,0,0,1,1
4.6125000000,250.3566859844,-320.5361642396,5.4476409948,-2.5574725529,-0.0105885675,-0.0199713988,-0.0000000000,-0.0000000000,0.0000000000,0.0000000000,0.0000000000,0.0000000000,0.0000000000,0.0000000000,0.0000000000,0.0000000000,0.0000000000,0.0000000000,1,0,0,0,0,0,0,0,0,0,0,0,0,0,1,1
4.6250000000,250.3566859844,-320.5361642396,5.4476409948,-2.5574725529,-0.0105885675,-0.0199713988,-0.0000000000,-0.0000000000,0.0000000000,0.0000000000,0.0000000000,0.0000000000,0.0000000000,0.0000000000,0.0000000000,0.0000000000,0.0000000000,0.0000000000,1,0,0,0,0,0,0,0,0,0,0,0,0,0,1,1
4.6375000000,250.3566859844,-320.5361642396,5.4476409948,-2.5574725529,-0.0105885675,-0.0199713988,-0.0000000000,-0.0000000000,0.0000000000,0.0000000000,0.0000000000,0.0000000000,0.0000000000,0.0000000000,0.0000000000,0.0000000000,0.0000000000,0.0000000000,1,0,0,0,0,0,0,0,0,0,0,0,0,0,1,1
4.6500000000,250.3566859844,-320.5361642396,5.4476409948,-2.5574725529,-0.0105885675,-0.0199713988,-0.0000000000,-0.0000000000,0.0000000000,0.0000000000,0.0000000000,0.0000000000,0.0000000000,0.0000000000,0.0000000000,0.0000000000,0.0000000000,0.0000000000,1,0,0,0,0,0,0,0,0,0,0,0,0,0,1,1
4.6625000000,250.3566859844,-320.5361642396,5.4476409948,-2.5574725529,-0.0105885675,-0.0199713988,-0.0000000000,-0.0000000000,0.0000000000,0.0000000000,0.0000000000,0.0000000000,0.0000000000,0.0000000000,0.0000000000,0.0000000000,0.0000000000,0.0000000000,1,0,0,0,0,0,0,0,0,0,0,0,0,0,1,1
4.6750000000,250.3566859844,-320.5361642396,5.4476409948,-2.5574725529,-0.0105885675,-0.0199713988,-0.0000000000,-0.0000000000,0.0000000000,0.0000000000,0.0000000000,0.0000000000,0.0000000000,0.0000000000,0.0000000000,0.0000000000,0.0000000000,0.0000000000,1,0,0,0,0,0,0,0,0,0,0,0,0,0,1,1
4.6875000000,250.3566859844,-320.5361642396,5.4476409948,-2.5574725529,-0.0105885675,-0.0199713988,-0.0000000000,-0.0000000000,0.0000000000,0.0000000000,0.0000000000,0.0000000000,0.0000000000,0.0000000000,0.0000000000,0.0000000000,0.0000000000,0.0000000000,1,0,0,0,0,0,0,0,0,0,0,0,0,0,1,1
4.7000000000,250.3566859844,-320.5361642396,5.4476409948,-2.5574725529,-0.0105885675,-0.0199713988,-0.0000000000,-0.0000000000,0.0000000000,0.0000000000,0.0000000000,0.0000000000,0.0000000000,0.0000000000,0.0000000000,0.0000000000,0.0000000000,0.0000000000,1,0,0,0,0,0,0,0,0,0,0,0,0,0,1,1
4.7125000000,250.3566859844,-320.5361642396,5.4476409948,-2.5574725529,-0.0105885675,-0.0199713988,-0.0000000000,-0.0000000000,0.0000000000,0.0000000000,0.0000000000,0.0000000000,0.0000000000,0.0000000000,0.0000000000,0.0000000000,0.0000000000,0.0000000000,1,0,0,0,0,0,0,0,0,0,0,0,0,0,1,1
4.7250000000,250.3566859844,-320.5361642396,5.4476409948,-2.5574725529,-0.0105885675,-0.0199713988,-0.0000000000,-0.0000000000,0.0000000000,0.0000000000,0.0000000000,0.0000000000,0.0000000000,0.0000000000,0.0000000000,0.0000000000,0.0000000000,0.0000000000,1,0,0,0,0,0,0,0,0,0,0,0,0,0,1,1
4.7375000000,250.3566859844,-320.5361642396,5.4476409948,-2.5574725529,-0.0105885675,-0.0199713988,-0.0000000000,-0.0000000000,0.0000000000,0.0000000000,0.0000000000,0.0000000000,0.0000000000,0.0000000000,0.0000000000,0.0000000000,0.0000000000,0.0000000000,1,0,0,0,0,0,0,0,0,0,0,0,0,0,1,1
4.7500000000,250.3566859844,-320.5361642396,5.4476409948,-2.5574725529,-0.0105885675,-0.0199713988,-0.0000000000,-0.0000000000,0.0000000000,0.0000000000,0.0000000000,0.0000000000,0.0000000000,0.0000000000,0.0000000000,0.0000000000,0.0000000000,0.0000000000,1,0,0,0,0,0,0,0,0,0,0,0,0,0,1,1
4.7625000000,250.3566859844,-320.5361642396,5.4476409948,-2.5574725529,-0.0105885675,-0.0199713988,-0.0000000000,-0.0000000000,0.0000000000,0.0000000000,0.0000000000,0.0000000000,0.0000000000,0.0000000000,0.0000000000,0.0000000000,0.0000000000,0.0000000000,1,0,0,0,0,0,0,0,0,0,0,0,0,0,1,1
4.7750000000,250.3566859844,-320.5361642396,5.4476409948,-2.5574725529,-0.0105885675,-0.0199713988,-0.0000000000,-0.0000000000,0.0000000000,0.0000000000,0.0000000000,0.0000000000,0.0000000000,0.0000000000,0.0000000000,0.0000000000,0.0000000000,0.0000000000,1,0,0,0,0,0,0,0,0,0,0,0,0,0,1,1
4.7875000000,250.3566859844,-320.5361642396,5.4476409948,-2.5574725529,-0.0105885675,-0.0199713988,-0.0000000000,-0.0000000000,0.0000000000,0.0000000000,0.0000000000,0.0000000000,0.0000000000,0.0000000000,0.0000000000,0.0000000000,0.0000000000,0.0000000000,1,0,0,0,0,0,0,0,0,0,0,0,0,0,1,1
4.8000000000,250.3566859844,-320.5361642396,5.4476409948,-2.5574725529,-0.0105885675,-0.0199713988,-0.0000000000,-0.0000000000,0.0000000000,0.0000000000,0.0000000000,0.0000000000,0.0000000000,0.0000000000,0.0000000000,0.0000000000,0.0000000000,0.0000000000,1,0,0,0,0,0,0,0,0,0,0,0,0,0,1,1
4.8125000000,250.3566859844,-320.5361642396,5.4476409948,-2.5574725529,-0.0105885675,-0.0199713988,-0.0000000000,-0.0000000000,0.0000000000,0.0000000000,0.0000000000,0.0000000000,0.0000000000,0.0000000000,0.0000000000,0.0000000000,0.0000000000,0.0000000000,1,0,0,0,0,0,0,0,0,0,0,0,0,0,1,1
4.8250000000,250.3566859844,-320.5361642396,5.4476409948,-2.5574725529,-0.0105885675,-0.0199713988,-0.0000000000,-0.0000000000,0.0000000000,0.0000000000,0.0000000000,0.0000000000,0.0000000000,0.0000000000,0.0000000000,0.0000000000,0.0000000000,0.0000000000,1,0,0,0,0,0,0,0,0,0,0,0,0,0,1,1
4.8375000000,250.3566859844,-320.5361642396,5.4476409948,-2.5574725529,-0.0105885675,-0.0199713988,-0.0000000000,-0.0000000000,0.0000000000,0.0000000000,0.0000000000,0.0000000000,0.0000000000,0.0000000000,0.0000000000,0.0000000000,0.0000000000,0.0000000000,1,0,0,0,0,0,0,0,0,0,0,0,0,0,1,1
4.8500000000,250.3566859844,-320.5361642396,5.4476409948,-2.5574725529,-0.0105885675,-0.0199713988,-0.0000000000,-0.0000000000,0.0000000000,0.0000000000,0.0000000000,0.0000000000,0.0000000000,0.0000000000,0.0000000000,0.0000000000,0.0000000000,0.0000000000,1,0,0,0,0,0,0,0,0,0,0,0,0,0,1,1
4.8625000000,250.3566859844,-320.5361642396,5.4476409948,-2.5574725529,-0.0105885675,-0.0199713988,-0.0000000000,-0.0000000000,0.0000000000,0.0000000000,0.0000000000,0.0000000000,0.0000000000,0.0000000000,0.0000000000,0.0000000000,0.0000000000,0.0000000000,1,0,0,0,0,0,0,0,0,0,0,0,0,0,1,1
4.8750000000,250.3566859844,-320.5361642396,5.4476409948,-2.5574725529,-0.0105885675,-0.0199713988,-0.0000000000,-0.0000000000,0.0000000000,0.0000000000,0.0000000000,0.0000000000,0.0000000000,0.0000000000,0.0000000000,0.0000000000,0.0000000000,0.0000000000,1,0,0,0,0,0,0,0,0,0,0,0,0,0,1,1
4.8875000000,250.3566859844,-320.5361642396,5.4476409948,-2.5574725529,-0.0105885675,-0.0199713988,-0.0000000000,-0.0000000000,0.0000000000,0.0000000000,0.0000000000,0.0000000000,0.0000000000,0.0000000000,0.0000000000,0.0000000000,0.0000000000,0.0000000000,1,0,0,0,0,0,0,0,0,0,0,0,0,0,1,1
4.9000000000,250.3566859844,-320.5361642396,5.4476409948,-2.5574725529,-0.0105885675,-0.0199713988,-0.0000000000,-0.0000000000,0.0000000000,0.0000000000,0.0000000000,0.0000000000,0.0000000000,0.0000000000,0.0000000000,0.0000000000,0.0000000000,0.0000000000,1,0,0,0,0,0,0,0,0,0,0,0,0,0,1,1
4.9125000000,250.3566859844,-320.5361642396,5.4476409948,-2.5574725529,-0.0105885675,-0.0199713988,-0.0000000000,-0.0000000000,0.0000000000,0.0000000000,0.0000000000,0.0000000000,0.0000000000,0.0000000000,0.0000000000,0.0000000000,0.0000000000,0.0000000000,1,0,0,0,0,0,0,0,0,0,0,0,0,0,1,1
4.9250000000,250.3566859844,-320.5361642396,5.4476409948,-2.5574725529,-0.0105885675,-0.0199713988,-0.0000000000,-0.0000000000,0.0000000000,0.0000000000,0.0000000000,0.0000000000,0.0000000000,0.0000000000,0.0000000000,0.0000000000,0.0000000000,0.0000000000,1,0,0,0,0,0,0,0,0,0,0,0,0,0,1,1
4.9375000000,250.3566859844,-320.5361642396,5.4476409948,-2.5574725529,-0.0105885675,-0.0199713988,-0.0000000000,-0.0000000000,0.0000000000,0.0000000000,0.0000000000,0.0000000000,0.0000000000,0.0000000000,0.0000000000,0.0000000000,0.0000000000,0.0000000000,1,0,0,0,0,0,0,0,0,0,0,0,0,0,1,1
4.9500000000,250.3566859844,-320.5361642396,5.4476409948,-2.5574725529,-0.0105885675,-0.0199713988,-0.0000000000,-0.0000000000,0.0000000000,0.0000000000,0.0000000000,0.0000000000,0.0000000000,0.0000000000,0.0000000000,0.0000000000,0.0000000000,0.0000000000,1,0,0,0,0,0,0,0,0,0,0,0,0,0,1,1
4.9625000000,250.3566859844,-320.5361642396,5.4476409948,-2.5574725529,-0.0105885675,-0.0199713988,-0.0000000000,-0.0000000000,0.0000000000,0.0000000000,0.0000000000,0.0000000000,0.0000000000,0.0000000000,0.0000000000,0.0000000000,0.0000000000,0.0000000000,1,0,0,0,0,0,0,0,0,0,0,0,0,0,1,1
4.9750000000,250.3566859844,-320.5361642396,5.4476409948,-2.5574725529,-0.0105885675,-0.0199713988,-0.0000000000,-0.0000000000,0.0000000000,0.0000000000,0.0000000000,0.0000000000,0.0000000000,0.0000000000,0.0000000000,0.0000000000,0.0000000000,0.0000000000,1,0,0,0,0,0,0,0,0,0,0,0,0,0,1,1
4.9875000000,250.3566859844,-320.5361642396,5.4476409948,-2.5574725529,-0.0105885675,-0.0199713988,-0.0000000000,-0.0000000000,0.0000000000,0.0000000000,0.0000000000,0.0000000000,0.0000000000,0.0000000000,0.0000000000,0.0000000000,0.0000000000,0.0000000000,1,0,0,0,0,0,0,0,0,0,0,0,0,0,1,1
5.0000000000,250.3566859844,-320.5361642396,5.4476409948,-2.5574725529,-0.0105885675,-0.0199713988,-0.0000000000,-0.0000000000,0.0000000000,0.0000000000,0.0000000000,0.0000000000,0.0000000000,0.0000000000,0.0000000000,0.0000000000,0.0000000000,0.0000000000,1,0,0,0,0,0,0,0,0,0,0,0,0,0,1,1
5.0125000000,250.3566859844,-320.5361642396,5.4476409948,-2.5574725529,-0.0105885675,-0.0199713988,-0.0000000000,-0.0000000000,0.0000000000,0.0000000000,0.0000000000,0.0000000000,0.0000000000,0.0000000000,0.0000000000,0.0000000000,0.0000000000,0.0000000000,1,0,0,0,0,0,0,0,0,0,0,0,0,0,1,1
5.0250000000,250.3566859844,-320.5361642396,5.4476409948,-2.5574725529,-0.0105885675,-0.0199713988,-0.0000000000,-0.0000000000,0.0000000000,0.0000000000,0.0000000000,0.0000000000,0.0000000000,0.0000000000,0.0000000000,0.0000000000,0.0000000000,0.0000000000,1,0,0,0,0,0,0,0,0,0,0,0,0,0,1,1
5.0375000000,250.3566859844,-320.5361642396,5.4476409948,-2.5574725529,-0.0105885675,-0.0199713988,-0.0000000000,-0.0000000000,0.0000000000,0.0000000000,0.0000000000,0.0000000000,0.0000000000,0.0000000000,0.0000000000,0.0000000000,0.0000000000,0.0000000000,1,0,0,0,0,0,0,0,0,0,0,0,0,0,1,1
5.0500000000,250.3566859844,-320.5361642396,5.4476409948,-2.5574725529,-0.0105885675,-0.0199713988,-0.0000000000,-0.0000000000,0.0000000000,0.0000000000,0.0000000000,0.0000000000,0.0000000000,0.0000000000,0.0000000000,0.0000000000,0.0000000000,0.0000000000,1,0,0,0,0,0,0,0,0,0,0,0,0,0,1,1
5.0625000000,250.3566859844,-320.5361642396,5.4476409948,-2.5574725529,-0.0105885675,-0.0199713988,-0.0000000000,-0.0000000000,0.0000000000,0.0000000000,0.0000000000,0.0000000000,0.0000000000,0.0000000000,0.0000000000,0.0000000000,0.0000000000,0.0000000000,1,0,0,0,0,0,0,0,0,0,0,0,0,0,1,1
5.0750000000,250.3566859844,-320.5361642396,5.4476409948,-2.5574725529,-0.0105885675,-0.0199713988,-0.0000000000,-0.0000000000,0.0000000000,0.0000000000,0.0000000000,0.0000000000,0.0000000000,0.0000000000,0.0000000000,0.0000000000,0.0000000000,0.0000000000,1,0,0,0,0,0,0,0,0,0,0,0,0,0,1,1
5.0875000000,250.3566859844,-320.5361642396,5.4476409948,-2.5574725529,-0.0105885675,-0.0199713988,-0.0000000000,-0.0000000000,0.0000000000,0.0000000000,0.0000000000,0.0000000000,0.0000000000,0.0000000000,0.0000000000,0.0000000000,0.0000000000,0.0000000000,1,0,0,0,0,0,0,0,0,0,0,0,0,0,1,1
5.1000000000,250.3566859844,-320.5361642396,5.4476409948,-2.5574725529,-0.0105885675,-0.0199713988,-0.0000000000,-0.0000000000,0.0000000000,0.0000000000,0.0000000000,0.0000000000,0.0000000000,0.0000000000,0.0000000000,0.0000000000,0.0000000000,0.0000000000,1,0,0,0,0,0,0,0,0,0,0,0,0,0,1,1
